epoch,ax,ay,az,gx,gy,gz,load,offset,error,force,frame,RF,LF,RH,LH
1670699045681.00,-0.191252629,0.6864988698585162,-1.379249456,-30.02,-101.7,85.91,88294,31936,0,230.8336146627996,0,0,0,1,0
1670699045690.00,-0.471513244,0.2767284748496371,-1.249218126,-51.33,-17.19,53.33,87885,31936,0,229.76162751852107,1,0,0,1,0
1670699045697.00,-0.831769256,0.036954563,-0.769185871,-100.56,49.62,38.13,87885,31936,0,229.76162751852107,2,0,0,1,0
1670699045706.00,-0.992020325,-0.122821321,0.4108460891230092,-208.39,180.31,31.53,88048,31936,0,230.1888497789548,3,0,0,1,0
1670699045713.00,-0.552265821,-0.032597667,0.8808767435471895,-224.52,191.84,35.53,88048,31936,0,230.1888497789548,4,0,0,1,1
1670699045722.00,-0.152504814,0.037627040669478945,0.9809050172626042,-217.57,209.47,9.47,87613,31936,0,229.04871675264388,5,0,0,1,1
1670699045729.00,-0.052736152,-0.172145661,0.7909295635484214,-224.19,214.88,-0.61,87613,31936,0,229.04871675264388,5,0,0,1,1
1670699045738.00,0.34704141446659537,-0.471914208,0.7209486938677103,-259.94,206.43,16.41,87418,31936,0,228.53762263740103,7,0,0,1,1
1670699045745.00,0.7568291180393553,-0.111676963,0.6109603943196846,-279.87,219.24,30.56,87418,31936,0,228.53762263740103,7,0,0,1,1
1670699045754.00,0.9766280492802364,0.17856780491975505,0.030962378,-274.12,217.43,39.37,87625,31936,0,229.0801686981973,8,0,0,0,1
1670699045761.00,1.2164390241985072,0.6088218620960218,-0.449047817,-273.96,203.68,44.11,87625,31936,0,229.0801686981973,9,0,0,0,1
1670699045770.00,1.3062624745437044,1.309086877162053,-0.769072672,-269.91,66.45,35.78,89488,31936,0,233.9630832453633,10,0,0,0,1
1670699045777.00,1.1360983750504072,1.7193642393030013,-0.809114523,-260.42,5.81,20.99,89488,31936,0,233.9630832453633,11,0,0,0,1
1670699045786.00,0.3259462377720418,2.0396548541915873,-0.889175443,-241.5,-78.8,-6.41,92101,31936,0,240.81174438961716,12,0,0,0,1
1670699045793.00,-0.264194782,2.6999589535699378,-0.389257199,-206.58,-41.24,-21.87,92101,31936,0,240.81174438961716,13,0,0,0,1
1670699045802.00,0.4856742911642489,2.480275928521152,0.45063870416722407,-124.36,26.15,-33.89,95628,31936,0,250.0559953868552,14,0,0,0,1
1670699045809.00,1.0455523359443906,1.3106042395569446,0.5705108681166539,-5.84,-13.15,-67.52,95628,31936,0,250.0559953868552,15,0,0,0,0
1670699045818.00,0.7954380530134959,0.2409415190029895,0.020357832,109.79,-133.71,-87.28,95831,31936,0,250.58805746580032,16,0,0,0,0
1670699045825.00,0.7653298461126918,-0.188715131,-1.20982196,141.39,-213.54,-92.43,95831,31936,0,250.58805746580032,17,1,0,0,0
1670699045834.00,0.4552257958084661,0.1516311777578502,-2.360029951,171.76,-286.71,-78.71,98684,31936,0,258.0657575211222,18,1,0,0,0
1670699045841.00,0.2151237119143844,0.35197728154373065,-2.420267127,154.93,-278.52,-74.18,98684,31936,0,258.0657575211222,19,1,0,0,0
1670699045850.00,-0.944978758,0.49231995905564196,-2.220533704,156.1,-192.38,-76.96,101851,31936,0,266.36645015175816,20,1,0,0,0
1670699045857.00,-0.875083947,0.092655875,-2.220828991,165.02,-121.85,-69.45,101851,31936,0,266.36645015175816,21,1,0,0,0
1670699045866.00,0.014806007854055753,-0.677018413,-2.711151376,144.43,-115.07,-56.1,102836,31936,0,268.9481306826001,22,1,0,0,0
1670699045873.00,1.1846891574920888,-1.046706321,-2.571498299,142.26,-169.43,-14.23,102836,31936,0,268.9481306826001,23,1,0,0,0
1670699045882.00,1.8545634976738505,-1.626411046,-1.021866234,173.79,-273.65,-11.98,106419,31936,0,278.3391574257541,24,1,1,0,0
1670699045889.00,-0.255573312,-2.146135342,0.8677491343220833,191.07,-286.72,-24.95,106419,31936,0,278.3391574257541,25,1,1,0,0
1670699045898.00,-3.565723892,-1.995881337,0.9973524888965362,241.73,-221.51,29.98,112500,31936,0,294.2774308349417,26,1,1,0,0
1670699045905.00,-3.815890591,-1.955650403,1.7369484048659114,238.03,-125.6,34.87,112500,31936,0,294.2774308349417,27,0,1,0,0
1670699045914.00,-1.23607483,-0.915443137,1.166541044919489,259.1,38.4,-39.38,110539,31936,0,289.1376587324229,28,0,1,0,0
1670699045921.00,0.12372302041772767,-0.415259492,0.14613407063357525,258.11,180.21,-56.64,110539,31936,0,289.1376587324229,28,0,1,0,0
1670699045930.00,1.573503194464131,1.004900977791439,0.7857307366645887,146.87,200.98,-58.12,103818,31936,0,271.5219482270537,30,0,1,0,0
1670699045937.00,1.783265924414712,1.1750387925427759,1.435334002,78.5,182.47,-33.69,103818,31936,0,271.5219482270537,30,0,1,0,0
1670699045946.00,0.4230110370939189,0.2551542610181795,0.7349465024450914,136.13,54.72,-48.27,102007,31936,0,266.77532544395245,31,0,1,0,0
1670699045953.00,-0.557262096,-0.134752595,-1.195429466,153.7,-114.07,-42.89,102007,31936,0,266.77532544395245,32,0,1,0,0
1670699045962.00,-3.51755424,-1.244681891,1.8342081931906427,72.45,-15.72,-4.02,100578,31936,0,263.0299229276345,33,0,1,0,0
1670699045969.00,-3.467865727,-1.604633611,1.4438614271326056,111.04,98.85,34.01,100578,31936,0,263.0299229276345,34,0,1,0,0
1670699045978.00,0.041804028,-2.924607315,1.4835318285126224,8,32.44,51.7,94699,31936,0,247.6210906019292,35,0,0,0,0
1670699045985.00,0.05145649,-2.39460184,1.5832204332189364,-64.8,53.96,34.09,94699,31936,0,247.6210906019292,36,0,0,0,0
1670699045994.00,-0.278906451,-1.094615132,2.0829276554197125,-113.58,55.49,99.54,89932,31936,0,235.1268052308393,37,0,0,0,0
1670699046002.00,0.5107171891357185,0.7053556460137427,1.3726532462835461,-60.49,34.58,217.95,87769,31936,0,229.45759204483812,38,0,0,0,0
1670699046009.00,0.9103293541922406,1.5253136996631258,0.2723963065673383,2.04,14.69,219.57,87769,31936,0,229.45759204483812,39,0,0,0,0
1670699046018.00,0.48993183548327496,1.6252621039002093,-0.10784454,27.89,-58.3,166.43,86756,31936,0,226.80252364103825,40,0,0,0,0
1670699046025.00,-0.260473798,1.2152034702314942,-0.688070872,-8.13,-137.15,102.68,86756,31936,0,226.80252364103825,41,0,0,0,0
1670699046034.00,-0.310886122,0.9151398531059207,-1.538284206,-4.9,-85.49,84.79,86717,31936,0,226.7003048179897,42,0,0,1,0
1670699046041.00,-0.01130371,0.45507282226959356,-1.708485754,0.79,-54.46,84.75,86717,31936,0,226.7003048179897,43,0,0,1,0
1670699046050.00,-0.141725075,-0.124996394,-0.968676236,-100.28,94.74,38.1,88100,31936,0,230.3251415430196,44,0,0,1,0
1670699046057.00,-0.10214867,-0.285066736,-0.498855831,-154.29,133.42,18.31,88100,31936,0,230.3251415430196,45,0,0,1,0
1670699046066.00,0.33742708072309646,-0.085137165,1.390975646502782,-232.54,162.79,-6.79,89495,31936,0,233.9814302136028,46,0,0,1,0
1670699046073.00,0.3570037415724109,0.1247934085042124,1.5408184203540025,-219.93,151.78,-17.15,89495,31936,0,233.9814302136028,47,0,0,1,1
1670699046082.00,0.23658279843221236,0.014726104022784972,1.1206723984243434,-191.19,132.9,-6.37,88958,31936,0,232.57395565008795,48,0,0,1,1
1670699046089.00,0.33616562059714433,-0.465337951,0.6105370045429986,-210.08,125.24,13.53,88958,31936,0,232.57395565008795,49,0,0,1,1
1670699046098.00,0.48575345226897926,-0.285397587,0.5704112312713273,-248.66,129.15,24.52,88953,31936,0,232.56085067277405,50,0,0,1,1
1670699046105.00,0.5153473935175316,0.3045484482817026,0.350293764,-256.14,133.82,25.55,88953,31936,0,232.56085067277405,51,0,0,0,1
1670699046114.00,0.5149483680203505,0.814501449,-0.009816921,-246.52,136.12,24.75,89528,31936,0,234.06792306387467,52,0,0,0,1
1670699046121.00,0.4245571035204208,1.1444625910279385,-0.219922466,-240.01,110.78,24.95,89528,31936,0,234.06792306387467,52,0,0,0,1
1670699046130.00,-0.645825839,2.054432741626618,-0.660024521,-234.11,31.52,24.88,91019,31936,0,237.9758272988852,53,0,0,0,1
1670699046137.00,-0.856199941,2.1944122471996055,-0.540124632,-240.62,-13.77,26.13,91019,31936,0,237.9758272988852,54,0,0,0,1
1670699046146.00,-0.596564541,2.9244007205900555,-0.190224168,-213.73,20.19,3.49,96510,31936,0,252.36771338503044,55,0,0,0,1
1670699046153.00,1.0530812359515171,2.494396858755042,0.45967566479221106,-114.97,102,-21.81,96510,31936,0,252.36771338503044,56,0,0,0,1
1670699046162.00,1.8427383061287286,0.6043983869003865,0.4895737000583805,18.31,81.79,-92.82,104015,31936,0,272.0382843332221,57,0,0,0,1
1670699046169.00,1.1024072969953973,-0.885597728,0.5394686724302493,132.43,-47.21,-123.13,104015,31936,0,272.0382843332221,58,1,0,0,0
1670699046178.00,0.8320883394753985,-0.805594822,-0.930640828,192.71,-254.5,-81.79,112580,31936,0,294.48711047196446,59,1,0,0,0
1670699046185.00,0.541781093,-0.235596136,-1.270756229,157.31,-286.34,-86.21,112580,31936,0,294.48711047196446,60,1,0,0,0
1670699046194.00,-0.33851511,0.3843952982575824,-2.350878697,115.34,-180.63,-103.17,114045,31936,0,298.3268688249425,61,1,0,0,0
1670699046201.00,-0.388801083,0.4043765365542209,-2.231008841,130.93,-119.94,-95.84,114045,31936,0,298.3268688249425,62,1,0,0,0
1670699046210.00,0.080922371,-0.115655415,-2.761146476,131.52,-97.58,-83.14,116902,31936,0,305.8150528621156,63,1,0,0,0
1670699046217.00,1.3406544864214847,-0.815703613,-2.121290488,120.49,-200.95,-30.54,116902,31936,0,305.8150528621156,64,1,0,0,0
1670699046226.00,1.5403943611065751,-1.195771035,-2.221438803,165.1,-286.55,-24.4,123231,31936,0,322.40333314607363,65,1,0,0,0
1670699046233.00,0.38014073049136515,-0.895860391,0.5484115108004111,144.31,-286.72,-62.5,123231,31936,0,322.40333314607363,66,1,1,0,0
1670699046242.00,-1.510108037,-2.145973989,1.428263908006994,197.51,-266.13,-0.99,128534,31936,0,336.3024720852156,67,1,1,0,0
1670699046249.00,-1.600353625,-2.856113575,1.1781218630460941,230.24,-174.68,50.11,128534,31936,0,336.3024720852156,68,1,1,0,0
1670699046258.00,-1.850597363,-1.386280136,1.3179884871542413,210.22,75.3,-50,125767,31936,0,329.05017763969306,69,0,1,0,0
1670699046265.00,-1.040839988,-0.886473835,0.6578664111849937,207.16,167.74,-76.74,125767,31936,0,329.05017763969306,70,0,1,0,0
1670699046274.00,1.2889183059037934,0.4933057883890045,-0.102242147,184.97,195.06,-95.77,114284,31936,0,298.95328674054787,71,0,1,0,0
1670699046281.00,1.758677536579636,1.383059450782338,1.7176647365154023,72.86,189.54,-107.24,114284,31936,0,298.95328674054787,72,0,1,0,0
1670699046290.00,0.8184374807895521,0.8827877596869054,0.31758872611491856,141.17,91.04,-80.91,106717,31936,0,279.12021407366365,73,0,1,0,0
1670699046297.00,-1.351802498,0.1824909954434697,-0.722468793,163.78,37.77,-36.15,106717,31936,0,279.12021407366365,74,0,1,0,0
1670699046306.00,-2.342043173,-0.297830855,0.13749341829720638,140.94,-73.96,-48.39,104290,31936,0,272.7590580854876,75,0,1,0,0
1670699046313.00,-3.432284922,-0.838177903,1.8774765704890874,118.1,0.01,-33.78,104290,31936,0,272.7590580854876,75,0,1,0,0
1670699046322.00,-0.822527293,-2.478550112,1.0174817060768855,198.52,79.29,92.8,99845,31936,0,261.1087332534141,77,0,0,0,0
1670699046329.00,0.7072310081403627,-2.778946976,1.5275094510034832,89.45,-11.9,75.51,99845,31936,0,261.1087332534141,77,0,0,0,0
1670699046338.00,0.4469917210230973,-2.129367199,2.2575598794980007,-119.56,-5.4,32.06,92658,31936,0,242.27163886238765,78,0,0,0,0
1670699046345.00,0.17675659643078317,-1.41980855,2.287632406564786,-104.19,-13.9,119.3,92658,31936,0,242.27163886238765,79,0,0,0,0
1670699046354.00,0.39652724102647474,-0.410267992,1.3077256707361067,-35.88,-5.83,181.2,88871,31936,0,232.3459290448258,80,0,0,0,0
1670699046361.00,0.6963051158581759,0.6192580335992984,0.1978375694610895,-6.03,-11.07,197.71,88871,31936,0,232.3459290448258,81,0,0,0,0
1670699046370.00,0.5960915095127417,1.2487732492579067,-0.172034496,-6.43,-60.49,180.29,87232,31936,0,228.0501174813233,82,0,0,0,0
1670699046377.00,-0.094112495,1.308281202795103,-0.291893315,-23.54,-99.27,156.03,87232,31936,0,228.0501174813233,83,0,0,0,0
1670699046386.00,-0.51430596,1.2777850415321308,-1.051741651,-62.29,-109.57,103.45,86379,31936,0,225.8144083515688,84,0,0,0,0
1670699046393.00,-0.454487949,1.277287417630458,-1.241582075,-43.42,-72.83,104.22,86379,31936,0,225.8144083515688,85,0,0,1,0
1670699046402.00,-0.014657409,0.9467904793101396,-1.301416809,-14.29,11.21,99.88,86282,31936,0,225.5601717916788,86,0,0,1,0
1670699046409.00,-0.174813156,0.246295923,-0.541247635,-70.53,120.75,58.96,86282,31936,0,225.5601717916788,87,0,0,1,0
1670699046418.00,-0.15495393,-0.164194877,0.11892406001315516,-146.72,165.25,26.34,86903,31936,0,227.18780997406748,88,0,0,1,0
1670699046425.00,0.094921587,-0.244680685,0.8690970993644758,-205.49,166.95,7.13,86903,31936,0,227.18780997406748,89,0,0,1,0
1670699046434.00,0.13481473693391957,-0.205160263,1.0692702602427713,-222.99,156.77,-7.6,86662,31936,0,226.5561500675366,90,0,0,1,1
1670699046441.00,0.064726854,-0.425632291,0.7594420661574299,-222.82,156.98,-9.06,86662,31936,0,226.5561500675366,91,0,0,1,1
1670699046450.00,0.10465923783710873,-0.616095335,0.5696107009501692,-252.24,160.22,31.23,86529,31936,0,226.2075576709864,92,0,0,1,1
1670699046457.00,0.18461314644706267,-0.466547796,0.5097740369112731,-260.52,165.75,44.35,86529,31936,0,226.2075576709864,93,0,0,0,1
1670699046466.00,0.47458978284322917,0.063012109,-0.07007029,-253.85,173.62,54.07,86628,31936,0,226.46703622180195,94,0,0,0,1
1670699046473.00,0.4245902522287976,0.3925862883675013,-0.41992478,-235.75,163.83,43.3,86628,31936,0,226.46703622180195,95,0,0,0,1
1670699046482.00,0.2646155187943128,1.282176633407306,-0.889791922,-239.46,112.15,36.85,87903,31936,0,229.8088054368512,96,0,0,0,1
1670699046489.00,-0.055333594,2.111784800186487,-0.969674035,-255.91,30.72,22.47,87903,31936,0,229.8088054368512,97,0,0,0,1
1670699046498.00,-0.575256336,2.831411931158598,-0.679573149,-273.8,-7.24,-13.78,91610,31936,0,239.52483561739032,98,0,0,0,1
1670699046505.00,0.11484806843484344,2.9210583596916404,0.24050901333757438,-263.37,55.5,-29.36,91610,31936,0,239.52483561739032,98,0,0,0,1
1670699046514.00,2.2849804109205394,1.6807234194106677,0.570570912,-68.92,94.06,-58.39,95981,31936,0,250.98120678521784,100,0,0,0,0
1670699046521.00,2.505141234956176,0.9604054800060506,0.590610991,-8.12,57.85,-102.02,95981,31936,0,250.98120678521784,100,0,0,0,0
1670699046530.00,1.5553304560121206,-0.33989779,-0.31937245,88.26,-85.18,-150.13,96252,31936,0,251.69149655563223,101,0,0,0,0
1670699046537.00,1.3855471940970345,-0.540189058,-1.479381192,159.83,-276.82,-119.98,96252,31936,0,251.69149655563223,102,1,0,0,0
1670699046546.00,0.6657898746975486,0.18952897,-2.409416835,135.15,-286.72,-108.83,100359,31936,0,262.4559249212849,103,1,0,0,0
1670699046553.00,-0.233943562,0.9992536340413706,-1.939480452,90.03,-286.72,-105.83,100359,31936,0,262.4559249212849,104,1,0,0,0
1670699046562.00,-1.2036554,0.8889821886775008,-2.029572355,136.68,-255.12,-69.07,105456,31936,0,275.8151387950934,105,1,0,0,0
1670699046569.00,-0.953347845,0.13871163967834274,-2.359692027,147.06,-142.71,-47.93,105456,31936,0,275.8151387950934,106,1,0,0,0
1670699046578.00,0.8969771582588568,-1.321561225,-2.719838091,147.91,-177.62,-34.97,108067,31936,0,282.6585579484216,107,1,0,0,0
1670699046585.00,1.4473178059751788,-1.691839578,-3.030008219,176.87,-218.43,-28.77,108067,31936,0,282.6585579484216,108,1,0,0,0
1670699046594.00,1.4376721060871418,-1.692126219,0.9198008902669674,173.03,-284.55,-54.44,111712,31936,0,292.2120864102682,109,1,1,0,0
1670699046601.00,-0.331962351,-1.92242335,1.3295931956497473,183.4,-286.72,-43.72,111712,31936,0,292.2120864102682,110,1,1,0,0
1670699046610.00,-3.201588244,-2.492732462,1.629372716,221,-212.9,57.15,118213,31936,0,309.2511779,111,0,1,0,0
1670699046617.00,-3.021207987,-1.353054268,1.579143052129075,229.92,-24.72,26.02,118213,31936,0,309.2511779,112,0,1,0,0
1670699046626.00,-0.820823195,-0.563388722,0.1289072458734397,235.59,171.73,-53.87,110590,31936,0,289.2713295010249,113,0,1,0,0
1670699046633.00,1.2795653454809124,0.8662647548015843,0.26866788665133484,161.5,210.34,-84.39,110590,31936,0,289.2713295010249,114,0,1,0,0
1670699046642.00,1.7299571831629939,1.3759069006793854,1.8584272734481124,57.75,208.17,-61.19,102727,31936,0,268.6624421771567,115,0,1,0,0
1670699046649.00,1.670351617,1.0555382520406766,1.1081873997429146,81.47,164.19,-51.78,102727,31936,0,268.6624421771567,116,0,1,0,0
1670699046658.00,-0.349252579,0.3351589529291946,-0.822050139,154.57,-3.05,-34.41,100814,31936,0,263.64847785685146,117,0,1,0,0
1670699046665.00,-0.988857023,0.074768795,-1.122283996,154.36,-100.96,-23.65,100814,31936,0,263.64847785685146,118,0,1,0,0
1670699046674.00,-3.598463305,-1.105632599,1.6374872138976628,108.61,-37.79,8.72,99485,31936,0,260.16517488681194,119,0,1,0,0
1670699046681.00,-2.14807246,-2.136045514,1.5172648961483786,179.79,91.41,77.43,99485,31936,0,260.16517488681194,120,0,0,0,0
1670699046690.00,0.29231532905226154,-3.036469798,1.7470501489188837,42.96,-32.75,70.04,93190,31936,0,243.66600844858857,121,0,0,0,0
1670699046697.00,-0.077299441,-2.116904512,1.7968434888057347,-68.46,16.46,56.3,93190,31936,0,243.66600844858857,121,0,0,0,0
1670699046706.00,-0.296916,-0.97734779,1.8066447544110213,-68.94,23.06,135.28,89095,31936,0,232.9330320284893,123,0,0,0,0
1670699046713.00,-0.08653351,-0.427796982,1.4164530877183812,-59.06,17.58,172.7,89095,31936,0,232.9330320284893,123,0,0,0,0
1670699046722.00,0.5438489100769812,1.1117510098303225,0.006266996,-17.99,12.61,212.23,87098,31936,0,227.69890408931028,124,0,0,0,0
1670699046729.00,0.454232116,1.3812993507962827,-0.143915447,-13.44,-11.44,201.83,87098,31936,0,227.69890408931028,125,0,0,0,0
1670699046738.00,-0.105383142,1.4208509347545255,-0.284096335,-33.25,-92.64,151.98,86817,31936,0,226.96240436426808,126,0,0,0,0
1670699046745.00,-0.454996213,1.4604081701693898,-0.994277722,-42.03,-101.96,112.86,86817,31936,0,226.96240436426808,127,0,0,0,0
1670699046754.00,0.015393556707097925,1.0599729151938937,-1.494461467,2.58,-29.75,116.05,87080,31936,0,227.65172617098017,128,0,0,1,0
1670699046761.00,0.16578688179889922,0.2195465219933534,-1.394649067,-21.37,72.92,102.4,87080,31936,0,227.65172617098017,129,0,0,1,0
1670699046770.00,-0.15381549,-0.420870008,-0.904841527,-118.84,149.21,57.85,88527,31936,0,231.44430660562816,130,0,0,1,0
1670699046777.00,-0.313412802,-0.421275798,0.3149606135514576,-178.15,175.82,35.51,88527,31936,0,231.44430660562816,131,0,0,1,0
1670699046786.00,-0.103004259,-0.081669908,1.054757069939489,-216.18,177.7,18.54,89406,31936,0,233.74816161741504,132,0,0,1,0
1670699046793.00,-0.012588996,-0.002051296,1.134547500935989,-198.28,181.7,19.09,89406,31936,0,233.74816161741504,133,0,0,1,0
1670699046802.00,0.087833901,-0.03241885,0.49433127336733285,-176.48,212.21,23.31,88771,31936,0,232.0838294985474,134,0,0,1,1
1670699046809.00,0.4182653479578581,-0.202771431,0.3241074137838059,-200.17,223.33,42.85,88771,31936,0,232.0838294985474,135,0,0,1,1
1670699046818.00,0.7487061892545518,-0.143107872,0.2638746963418517,-239.46,199.54,59.03,88362,31936,0,231.01184235426888,136,0,0,0,1
1670699046825.00,0.9291571016173831,0.536573031,0.13363173941910264,-243.45,181.54,68.66,88362,31936,0,231.01184235426888,137,0,0,0,1
1670699046834.00,0.9896184881110567,0.9262724479712915,-0.036622935,-223.54,149.79,69.79,88977,31936,0,232.62375456388085,138,0,0,0,1
1670699046841.00,0.8900904066881712,1.405991358598703,-0.286890849,-213.08,106.84,68.3,88977,31936,0,232.62375456388085,139,0,0,0,1
1670699046850.00,-0.079427431,1.8157303698448408,-0.707173493,-181.85,-61.42,41.17,90970,31936,0,237.8473985212088,140,0,0,0,1
1670699046857.00,-0.728935542,2.0254895404226607,-0.777472222,-178.88,-93.38,34.92,90970,31936,0,237.8473985212088,141,0,0,0,1
1670699046866.00,-1.368434439,2.0352682410992955,-0.427788172,-183.57,-65.98,31.01,96507,31936,0,252.3598503986421,142,0,0,0,1
1670699046873.00,-1.037924377,1.6550650789686752,-0.148122233,-140.96,52.88,12.01,96507,31936,0,252.3598503986421,143,0,0,0,1
1670699046882.00,0.6225947577503678,0.5548779302141111,0.39152486548651916,-50.98,129.77,-4.37,106208,31936,0,277.7861273831068,144,0,0,0,0
1670699046889.00,1.5431232864719076,-0.23529588,0.3411524312832373,43.69,90.42,-58.59,106208,31936,0,277.7861273831068,144,0,0,0,0
1670699046898.00,1.2936613897371763,-0.375459292,0.000759706,125.1,-56.17,-89.72,115297,31936,0,301.60835514434774,146,0,0,0,0
1670699046905.00,0.9242088286419422,-0.105615267,-1.379654123,141.39,-216.5,-95.3,115297,31936,0,301.60835514434774,146,0,0,0,0
1670699046914.00,0.37476489964642345,0.084233306,-1.920089723,147.12,-206.47,-106.7,118536,31936,0,310.09775944830415,147,1,0,0,0
1670699046921.00,0.025328555325556487,0.10408358744985322,-2.360547316,168.68,-173.25,-101.04,118536,31936,0,310.09775944830415,148,1,0,0,0
1670699046930.00,-0.264101428,0.30393272776633445,-1.671026422,173.01,-149.28,-84.93,119925,31936,0,313.7383221461107,149,1,0,0,0
1670699046937.00,0.346473678,0.053777823,-1.381525779,135.04,-147.41,-88.82,119925,31936,0,313.7383221461107,150,1,0,0,0
1670699046946.00,1.4570525618335965,-0.736384074,-1.72204341,143.97,-228.62,-84.38,121362,31936,0,317.5046926261309,151,1,0,0,0
1670699046953.00,0.3676337273955751,-1.036555854,-2.182576683,139.76,-264.38,-95.04,121362,31936,0,317.5046926261309,152,1,0,0,0
1670699046962.00,-1.611784562,-0.726740188,-1.443122272,126.7,-271.21,-77.94,123097,31936,0,322.0521197540606,153,1,0,0,0
1670699046969.00,-1.141204062,-1.746939403,0.31632381818939403,167.6,-193.06,-24.37,123097,31936,0,322.0521197540606,154,1,0,0,0
1670699046978.00,-0.380626239,-2.397155364,2.735765957529084,229.28,-118.05,38.2,126086,31936,0,329.8862751923211,155,1,1,0,0
1670699046985.00,0.10994780042903081,-2.457389272,1.6652083539601152,253.16,-144.52,54.36,126086,31936,0,329.8862751923211,156,1,1,0,0
1670699046994.00,-0.189482847,-0.727641516,1.324654610977273,190.31,-87.97,-10.18,116429,31936,0,304.5753220082189,157,0,1,0,0
1670699047003.00,1.0810809587172003,0.4220882281706265,0.6741076530707836,166.95,41.51,-66.45,106216,31936,0,277.80709534680904,158,0,1,0,0
1670699047009.00,0.8016382551884174,0.6318006402257329,1.5135698671183115,122.89,71.66,-82.18,106216,31936,0,277.80709534680904,159,0,1,0,0
1670699047019.00,0.8921878330541484,1.0814963812293767,1.2330431836641877,98.94,45.74,-67.92,96713,31936,0,252.89977546397557,160,0,1,0,0
1670699047025.00,-0.067271828,0.19117588082173875,0.3825290738911775,138.11,-4.44,-67.92,96713,31936,0,252.89977546397557,161,0,1,0,0
1670699047035.00,-0.946742457,0.17083930989960783,-0.907971359,140.86,-41.47,-55.82,94416,31936,0,246.87934888596135,162,0,1,0,0
1670699047041.00,-2.766225721,-1.119513302,0.4015428512188149,63.49,-143.17,-55.72,94416,31936,0,246.87934888596135,163,0,1,0,0
1670699047051.00,-3.865722787,-1.639881844,1.401072662022004,2.5,22.89,-40.67,92343,31936,0,241.4460252916108,164,0,1,0,0
1670699047057.00,-1.225233894,-2.900265825,1.7806188681155048,26.16,94.69,-20.45,92343,31936,0,241.4460252916108,165,0,0,0,0
1670699047067.00,0.005241715,-2.540664047,1.6401818184415922,-57.28,126.58,31.73,89106,31936,0,232.96186297857997,166,0,0,0,0
1670699047073.00,-0.244294555,-1.901074385,1.529761243879434,-67.68,161.5,70.39,89106,31936,0,232.96186297857997,167,0,0,0,0
1670699047083.00,0.44615892926658796,0.15850618136708372,1.0693562379648154,-80.28,121.55,173.71,86871,31936,0,227.1039381192584,168,0,0,0,0
1670699047089.00,0.8866038020420139,0.7080812484620311,0.8289653298887385,-80.82,96.8,226.49,86871,31936,0,227.1039381192584,168,0,0,0,0
1670699047099.00,1.267041534948844,1.4976545351723995,0.2785866056279314,-43.34,24.98,216.67,86134,31936,0,225.1722644631868,170,0,0,0,0
1670699047105.00,0.44747329087493176,1.6072294961459965,0.20821784927282688,-35.69,-89.61,156.76,86134,31936,0,225.1722644631868,170,0,0,0,0
1670699047115.00,-0.232100095,1.3068090943622424,-0.69214331,-33.9,-130.25,98.39,86017,31936,0,224.8656079940411,172,0,0,1,0
1670699047121.00,-0.151677977,0.8863957327107579,-1.542499214,-21.34,-65.42,82.53,86017,31936,0,224.8656079940411,172,0,0,1,0
1670699047131.00,-0.21125973,0.4659913207537384,-1.42285194,-60.94,28.26,59.42,85980,31936,0,224.7686311619181,173,0,0,1,0
1670699047137.00,-0.400844663,0.21559741306908942,-1.053203104,-112.05,81.57,41.24,85980,31936,0,224.7686311619181,174,0,0,1,0
1670699047147.00,-0.330431983,-0.264784641,0.2664461635794442,-194.39,166.88,4.76,85865,31936,0,224.4672167,175,0,0,1,0
1670699047153.00,-0.160020778,-0.415153558,0.5260950287029562,-227.89,208.84,-21.17,85865,31936,0,224.4672167,176,0,0,1,1
1670699047163.00,-0.079610022,-0.635507988,0.6457426899146527,-231.88,201.57,-40.68,86200,31936,0,225.34525016373053,177,0,0,1,1
1670699047169.00,-0.009198612,-0.755846417,0.6153881869195417,-262.29,192.29,-27.19,86200,31936,0,225.34525016373053,178,0,0,1,1
1670699047179.00,0.071214587,-0.206167108,0.5250303291616416,-286.57,231.55,-2.74,86101,31936,0,225.08577161291493,179,0,0,1,1
1670699047185.00,0.5516307045779976,0.38353187437345937,0.324667696,-286.72,247.99,27.71,86101,31936,0,225.08577161291493,180,0,0,0,1
1670699047195.00,0.9920507819657733,1.0832525232878991,-0.025701321,-282.68,216.34,34.19,87022,31936,0,227.49970843413877,181,0,0,0,1
1670699047201.00,1.222475641782991,1.3429966712449377,-0.216078439,-271.22,181.01,32.13,87022,31936,0,227.49970843413877,182,0,0,0,1
1670699047211.00,1.482905742352282,1.8727657751546056,-0.956465371,-235.93,32.82,12.69,89507,31936,0,234.01288215915625,183,0,0,0,1
1670699047217.00,1.2833410663614344,1.9225607385106758,-1.256863676,-189.68,-16.81,-1.94,89507,31936,0,234.01288215915625,184,0,0,0,1
1670699047227.00,0.24378109375442042,1.962381782782022,-0.9572746,-175.45,-88.99,-56.42,93098,31936,0,243.42487686601248,185,0,0,0,1
1670699047233.00,-0.075775088,2.3722283664329704,0.28230099091289124,-165.88,-98.34,-75.16,93098,31936,0,243.42487686601248,186,0,0,0,1
1670699047243.00,0.32467140473132544,1.9520991303718944,0.4018624824582736,-60.54,-41.6,-68.91,94285,31936,0,246.53599848033676,187,0,0,0,1
1670699047249.00,0.4951193685384242,1.161991893024311,0.24140930021544924,45.62,-33.79,-77.07,94285,31936,0,246.53599848033676,188,0,0,0,0
1670699047259.00,0.7455674831178032,0.2619037726005851,-0.269059212,137.6,-139.87,-102.37,96570,31936,0,252.52497311279745,189,1,0,0,0
1670699047265.00,0.7560142307765233,0.041831432,-0.809543748,161.53,-213.18,-114.9,96570,31936,0,252.52497311279745,190,1,0,0,0
1670699047275.00,0.3964578394366969,-0.148228669,-2.300044855,193.09,-237.16,-105.21,100999,31936,0,264.1333620174665,191,1,0,0,0
1670699047281.00,0.3568962886930522,-0.238280113,-2.320562653,187.58,-210.66,-90.4,100999,31936,0,264.1333620174665,191,1,0,0,0
1670699047291.00,0.12732736600517403,0.021673554,-2.191096543,176.46,-169.86,-95.03,103444,31936,0,270.5416959239726,193,1,0,0,0
1670699047297.00,0.7177487164069287,0.081628829,-2.161645056,152.5,-199.92,-55.91,103444,31936,0,270.5416959239726,193,1,0,0,0
1670699047307.00,1.7581578049219364,-0.668417757,-3.092205816,175.57,-279.86,-34.76,104349,31936,0,272.91369681779184,195,1,0,0,0
1670699047313.00,1.3085517595108866,-0.898469591,-2.372775476,144.14,-286.72,-63.22,104349,31936,0,272.91369681779184,195,1,0,0,0
1670699047323.00,-0.791072741,-0.738529863,1.3966502435232864,134.29,-286.72,-57.07,108328,31936,0,283.3426377642082,197,1,1,0,0
1670699047329.00,-2.27071927,-1.438601453,1.7960761565093506,184.12,-286.72,-25.13,108328,31936,0,283.3426377642082,197,1,1,0,0
1670699047339.00,-2.630391166,-2.648686816,1.1755069730238354,264.6,-214.84,104.59,114961,31936,0,300.72770066885244,198,1,1,0,0
1670699047345.00,-2.640091053,-1.768787784,1.7549468931361267,254.59,-93.76,82.92,114961,31936,0,300.72770066885244,199,0,1,0,0
1670699047355.00,-1.349820619,-0.918905435,0.9543995280807951,249.59,103.87,5.17,105146,31936,0,275.00263020163044,200,0,1,0,0
1670699047361.00,0.7804192808721196,0.16095980736287965,-0.096132028,223.26,223.86,-41.76,105146,31936,0,275.00263020163044,201,0,1,0,0
1670699047371.00,2.0106281905056367,0.8008078634215408,1.6233549391626811,96,281.89,-45.52,96955,31936,0,253.5340563659692,202,0,1,0,0
1670699047377.00,2.210805483839459,0.5506386712594692,0.9128628371163152,94.12,170.59,-21.2,96955,31936,0,253.5340563659692,203,0,1,0,0
1670699047387.00,0.8809499467589572,0.060452,-0.157606273,123.01,1.06,-18.56,97036,31936,0,253.74635699845467,204,0,1,0,0
1670699047393.00,-1.608940234,-0.689752538,0.051949390136502155,116.83,-117.15,-11.31,97036,31936,0,253.74635699845467,205,0,1,0,0
1670699047403.00,-4.478867,-1.499975305,1.6515314512556953,76.34,-85.03,1.64,97503,31936,0,254.97036187957465,206,0,1,0,0
1670699047409.00,-3.838831656,-2.17021638,1.7311413138136453,117.88,21.62,20.36,97503,31936,0,254.97036187957465,207,0,1,0,0
1670699047419.00,-1.27883428,-2.850475258,1.3407799263324642,67.34,30.44,34.05,93148,31936,0,243.5559266391517,208,0,0,0,0
1670699047425.00,-0.47887375,-2.060750611,1.4304476427551474,-39.51,134.57,61.99,93148,31936,0,243.5559266391517,209,0,0,0,0
1670699047435.00,-0.268948203,-0.691040206,1.6901442176013268,-77.28,140.05,163.9,89267,31936,0,233.3838432480881,210,0,0,0,0
1670699047441.00,0.5909445290401861,0.5286588948428649,1.299868813333099,-78.59,83.33,251.8,89267,31936,0,233.3838432480881,211,0,0,0,0
1670699047451.00,1.040806651825054,1.338349920096561,0.4696200219263821,-18.37,33.04,255.74,88144,31936,0,230.44046534338204,212,0,0,0,0
1670699047457.00,0.7006401987674185,1.638035966834941,-0.090604008,20.63,2.26,232.31,88144,31936,0,230.44046534338204,213,0,0,0,0
1670699047467.00,-0.149553071,1.457719696253615,-0.580805347,42.17,-135.01,126.84,87051,31936,0,227.57571730255944,214,0,0,0,0
1670699047473.00,-0.489771593,1.3774031979140549,-1.090986045,33.63,-126.97,106.12,87051,31936,0,227.57571730255944,214,0,0,0,0
1670699047483.00,-0.150013827,0.43708799810023996,-1.711147916,12.92,-70.04,116.24,88156,31936,0,230.47191728893543,216,0,0,1,0
1670699047489.00,-0.210278138,0.026775186,-1.431292347,-37.89,30.38,95.65,88156,31936,0,230.47191728893543,216,0,0,1,0
1670699047499.00,-0.170562794,-0.273534383,-0.651420184,-125.44,129.82,39.18,89711,31936,0,234.5475652335641,218,0,0,1,0
1670699047505.00,0.099134013,-0.213839904,0.42846819450059476,-174.21,160.65,1.16,89711,31936,0,234.5475652335641,218,0,0,1,0
1670699047515.00,0.44881411840066865,-0.234140517,0.8283726265929005,-161.51,131.33,-2.68,91410,31936,0,239.0006365248336,220,0,0,1,0
1670699047521.00,0.5884793059361689,-0.284435275,0.8082928859154547,-166.26,113.73,-5.71,91410,31936,0,239.0006365248336,220,0,0,1,0
1670699047531.00,0.5181312150821196,-0.284723128,0.7382284962079717,-200.79,108.93,-0.73,90409,31936,0,236.3770200665871,221,0,0,1,1
1670699047537.00,0.5177712853160811,-0.455002919,0.6781786763491356,-219.44,98.25,5.97,90409,31936,0,236.3770200665871,222,0,0,1,1
1670699047547.00,0.4774007451063629,-0.425273356,0.19814236083487152,-237.9,81.17,22.88,90052,31936,0,235.4413246863733,223,0,0,1,1
1670699047553.00,0.35702062253104616,0.004466998,0.028118268388881415,-253.4,87.21,29.43,90052,31936,0,235.4413246863733,224,0,0,1,1
1670699047563.00,0.036631773111247615,0.7142196784987699,-0.321894993,-252.52,97.6,45.92,90037,31936,0,235.4020097544316,225,0,0,0,1
1670699047569.00,-0.273765058,1.373986167435603,-0.551898809,-242.25,87.02,63.18,90037,31936,0,235.4020097544316,226,0,0,0,1
1670699047579.00,-0.554169139,1.8937676668823995,-0.551894459,-243.63,48.73,86.61,92130,31936,0,240.88775325803783,227,0,0,0,1
1670699047585.00,-0.644579637,2.593564848,-0.241883044,-238.88,27.49,84.11,92130,31936,0,240.88775325803783,228,0,0,0,1
1670699047595.00,-0.124995541,2.7733776153100638,0.058134501,-171.95,52.67,45.25,100037,31936,0,261.6119643822685,229,0,0,0,1
1670699047601.00,0.4745843151551039,2.3632049269752904,0.3381573334501081,-117.24,82.65,18.47,100037,31936,0,261.6119643822685,230,0,0,0,1
1670699047611.00,1.9841611016725738,-0.356955207,0.7981845853453434,53.57,80.24,-86.88,110504,31936,0,289.0459238912255,231,0,0,0,1
1670699047617.00,1.663735704777535,-0.707105419,0.9082152362933321,110,16.86,-109.84,110504,31936,0,289.0459238912255,232,1,0,0,0
1670699047627.00,0.8433084829510413,-1.017248496,-0.881751957,168.81,-196.58,-74.07,116301,31936,0,304.2398345889826,233,1,0,0,0
1670699047633.00,-0.287120741,-0.147387037,-1.80171833,132.84,-270.14,-58.21,116301,31936,0,304.2398345889826,234,1,0,0,0
1670699047643.00,-1.377552423,0.9724765783590981,-1.631684975,121.97,-205.35,-34.71,119472,31936,0,312.5510112014697,235,1,0,0,0
1670699047649.00,-1.107986937,0.7723399988636883,-1.631652447,133.36,-174.8,-20.41,119472,31936,0,312.5510112014697,236,1,0,0,0
1670699047659.00,0.6515756519353405,0.19220068401889892,-2.571620627,161.05,-171.04,-5.75,118713,31936,0,310.5616756452169,237,1,0,0,0
1670699047665.00,1.5511354850276855,-0.427944124,-3.431588602,152.59,-199.06,6.71,118713,31936,0,310.5616756452169,238,1,0,0,0
1670699047675.00,1.2006925661273615,-0.568097255,-1.451554493,138.91,-266.29,-35.88,119740,31936,0,313.25343798549574,239,1,1,0,0
1670699047681.00,0.9602464859169529,-1.028261432,0.038484533300447155,139.43,-263.79,-46.92,119740,31936,0,313.25343798549574,239,1,1,0,0
1670699047691.00,-0.760203592,-2.088439102,2.448531870799195,183.25,-212.12,-24.98,123157,31936,0,322.2093794818276,241,1,1,0,0
1670699047697.00,-1.450658696,-2.848632207,1.558590853584141,262.82,-32.52,22.24,123157,31936,0,322.2093794818276,241,1,1,0,0
1670699047707.00,-1.871119672,-2.038841928,1.1086642988453521,275.35,70.71,-36.22,120678,31936,0,315.71193172958687,243,0,1,0,0
1670699047713.00,0.028413086051668535,-0.719068564,-0.361245556,200.33,151.52,-75.04,120678,31936,0,315.71193172958687,243,0,1,0,0
1670699047723.00,1.1079395995948298,0.8206882790641752,2.208863123662747,59.21,205.27,-102.9,107837,31936,0,282.05572899198137,244,0,1,0,0
1670699047729.00,0.9974599721524986,1.2204292655838185,1.478991821664515,21.34,233.17,-100.25,107837,31936,0,282.05572899198137,245,0,1,0,0
1670699047739.00,-0.323025906,0.4701549255665806,-0.520858436,182.8,91.18,-77.84,101726,31936,0,266.03882571891023,246,0,1,0,0
1670699047745.00,-1.393518338,0.059865494,-0.840686983,162.46,107.04,-62.83,101726,31936,0,266.03882571891023,247,0,1,0,0
1670699047755.00,-1.764017522,-0.330439004,-0.820493174,150.14,10.98,-34.67,99219,31936,0,259.4679900937115,248,0,1,0,0
1670699047761.00,-3.284523185,-1.240758565,1.1197238324858207,100.47,121.83,-2.51,99219,31936,0,259.4679900937115,249,0,1,0,0
1670699047771.00,-0.85503429,-2.061092982,1.2399649543940712,176.14,165.52,86.68,95070,31936,0,248.5934799186219,250,0,0,0,0
1670699047777.00,1.2244509536799795,-2.431441559,1.8802308740425064,-19.03,27.48,66.08,95070,31936,0,248.5934799186219,251,0,0,0,0
1670699047787.00,0.6539346997001569,-1.491802886,2.360521750657091,-126.76,36.58,85.19,89959,31936,0,235.19757210833444,252,0,0,0,0
1670699047793.00,0.41341900959546496,-0.872174777,2.060837023541191,-107.84,8.47,134.17,89959,31936,0,235.19757210833444,253,0,0,0,0
1670699047803.00,0.6629056884971425,-0.012554443,0.7311753363854137,11.3,1.55,212.43,87576,31936,0,228.9517399205209,254,0,0,0,0
1670699047809.00,0.9323962944930444,0.3670612360999954,0.001534669,33.73,-0.77,213.39,87576,31936,0,228.9517399205209,255,0,0,0,0
1670699047819.00,0.5118921231187348,0.9466754470262781,-0.358087364,31.52,-44.49,173.35,86597,31936,0,226.3857853624557,256,0,0,0,0
1670699047825.00,0.14139419932966196,0.8162912298936529,-0.347693227,-37.85,-140.81,103.56,86597,31936,0,226.3857853624557,257,0,0,1,0
1670699047835.00,-0.109096649,0.7059113476521187,-1.117285289,-72.19,-151.62,80.39,86214,31936,0,225.3819441002095,258,0,0,1,0
1670699047841.00,0.030420319,0.8155382467206561,-1.626865677,-64.39,-104.44,80.29,86214,31936,0,225.3819441002095,259,0,0,1,0
1670699047851.00,-0.400054158,0.7851740618773148,-0.986436122,-108.89,-13.08,46.2,86149,31936,0,225.21157939512852,260,0,0,1,0
1670699047857.00,-0.70051928,0.4648206251373748,0.024002108175094357,-139.04,38.51,13,86149,31936,0,225.21157939512852,261,0,0,1,0
1670699047867.00,-0.340974111,-0.235520488,0.6544480633768432,-189.73,144.16,-12.91,86848,31936,0,227.0436552236144,262,0,0,1,0
1670699047873.00,-0.191417533,-0.365847839,0.8649008425939327,-202.73,152.7,-21.87,86848,31936,0,227.0436552236144,262,0,0,1,0
1670699047883.00,-0.18184827,-0.50615997,0.8153593623529666,-222.02,150.47,-25.2,86697,31936,0,226.64788490873403,264,0,0,1,1
1670699047889.00,-0.112264949,-0.106455303,0.6158222471484139,-254.91,148.35,-4.37,86697,31936,0,226.64788490873403,264,0,0,1,1
1670699047899.00,0.37733386332954516,-0.776732111,0.5762878210290463,-285.72,178.09,24.01,86870,31936,0,227.1013171237956,266,0,0,1,1
1670699047905.00,0.5969495844957712,-0.266988511,0.1267541523091106,-285.69,185.73,34.71,86870,31936,0,227.1013171237956,266,0,0,1,1
1670699047915.00,0.7665835142508195,0.46277753902555896,-0.262780865,-286.42,176.42,36.27,88215,31936,0,230.62655602123968,267,0,0,0,1
1670699047921.00,1.0062367261833276,1.2425681212292092,-0.672319385,-275.61,121.56,28.53,88215,31936,0,230.62655602123968,268,0,0,0,1
1670699047931.00,0.935909986,1.892385124332463,-0.891863461,-252.97,24.25,14.39,91200,31936,0,238.4502275,269,0,0,0,1
1670699047937.00,0.5956037110627532,2.1322299694657483,-0.871414912,-238.79,-23.55,-3.8,91200,31936,0,238.4502275,270,0,0,0,1
1670699047947.00,-0.53468199,2.582103381918596,-0.250975256,-224.67,-75.51,-26.93,94299,31936,0,246.5726924168157,271,0,0,0,1
1670699047953.00,-0.444947149,2.6020052255866837,0.10945424750754514,-180.57,-32.81,-30.53,94299,31936,0,246.5726924168157,272,0,0,0,1
1670699047963.00,0.3948082332287671,1.8219344129818387,0.5598724599856426,-92.85,32.83,-56.08,100558,31936,0,262.97750301837885,273,0,0,0,0
1670699047969.00,0.7845842009178288,0.28188896762636817,0.48027820617611994,35.47,4.22,-87.61,100558,31936,0,262.97750301837885,274,0,0,0,0
1670699047979.00,0.9543806960924555,-0.348133703,0.1506701705159913,134.24,-133.01,-95.05,103897,31936,0,271.7290068686136,275,0,0,0,0
1670699047985.00,1.0241973939229942,0.061863552704893354,-1.50895307,176.16,-280.39,-92.54,103897,31936,0,271.7290068686136,276,1,0,0,0
1670699047995.00,0.5540336226305764,0.45187784775148276,-2.058592823,162.23,-253.51,-78.98,106710,31936,0,279.10186710542416,277,1,0,0,0
1670699048002.00,-0.316111605,0.6119062530366723,-2.518249925,189.1,-194.35,-67.86,105405,31936,0,275.6814680264914,278,1,0,0,0
1670699048008.00,0.2037605413224916,0.081945711,-3.20792443,186.11,-189.22,-66.17,105405,31936,0,275.6814680264914,279,1,0,0,0
1670699048018.00,1.5236488001203425,-0.238006975,-2.757615383,143.45,-218.57,-68.24,106054,31936,0,277.38249408183805,280,1,0,0,0
1670699048024.00,1.9835516956060069,-0.687955048,-2.497320707,135.26,-248.14,-70.95,106054,31936,0,277.38249408183805,281,1,0,0,0
1670699048034.00,0.8334672928602952,-1.377901632,0.12296271574208817,147.2,-283.62,-85.66,110259,31936,0,288.4037800028435,282,1,1,0,0
1670699048040.00,-1.816606835,-2.287849537,0.9732386943748828,201.01,-269.94,-26.84,110259,31936,0,288.4037800028435,282,1,1,0,0
1670699048050.00,-3.716673201,-2.027801007,1.3135112087176963,248.96,-263.71,39.07,111062,31936,0,290.5084393594588,284,1,1,0,0
1670699048056.00,-2.576733744,-1.32775756,1.4337839758793913,278.14,-21.12,36.99,111062,31936,0,290.5084393594588,284,1,1,0,0
1670699048066.00,-0.546789417,-0.967719986,1.0240602476467655,254.39,149.9,-2.15,104543,31936,0,273.4221699375719,286,0,1,0,0
1670699048072.00,2.0331596355764967,-0.167688519,0.17434279940058212,235.93,181.85,-18.34,104543,31936,0,273.4221699375719,286,0,1,0,0
1670699048082.00,2.0531134440032135,0.29233694360049195,1.5546340212924012,56.31,207.17,-52.91,100950,31936,0,264.00493323979003,288,0,1,0,0
1670699048088.00,1.9630716007629254,0.4823566204814797,1.2849359523018538,55.74,153.34,-53.97,100950,31936,0,264.00493323979003,288,0,1,0,0
1670699048098.00,-0.026966994,0.38237066814778314,-0.684749755,94.82,29.13,-73.21,100129,31936,0,261.85309596484467,289,0,1,0,0
1670699048104.00,-1.637003944,-0.507620879,-0.074421731,136.83,-166.78,-76.32,100129,31936,0,261.85309596484467,290,0,1,0,0
1670699048114.00,-4.167040833,-1.547618011,1.2159213090838303,91.97,-23.41,-7.18,100178,31936,0,261.98152474252106,291,0,1,0,0
1670699048120.00,-2.19707857,-2.527620472,1.2862805416811498,116.79,127.01,47.3,100178,31936,0,261.98152474252106,292,0,1,0,0
1670699048130.00,-0.147117058,-2.547627422,1.5966568186877175,-25.39,98.27,39.38,93855,31936,0,245.40897043133967,293,0,0,0,0
1670699048136.00,-0.087155396,-1.277637185,2.2370504647640104,-120.65,112.84,76.71,93855,31936,0,245.40897043133967,294,0,0,0,0
1670699048146.00,0.2228076657914555,-0.037647288,2.1474611302230295,-116.89,56.31,174.85,89854,31936,0,234.92236758474212,295,0,0,0,0
1670699048152.00,0.5727734221653505,0.44234524570882106,1.727887681876827,-80.04,47.86,209.24,89854,31936,0,234.92236758474212,296,0,0,0,0
1670699048162.00,0.8727430684756844,1.2523435115278228,0.088328228,8.11,30.69,207.07,88339,31936,0,230.95155945862484,297,0,0,0,0
1670699048168.00,0.5627175931279313,1.2723504193863655,-0.271219656,48.63,-40.71,182.4,88339,31936,0,230.95155945862484,298,0,0,0,0
1670699048178.00,-0.047302264,1.0323684954330254,-1.000758577,6.82,-131.43,123.44,87770,31936,0,229.4602130403009,299,0,0,1,0
1670699048184.00,-0.11731594,0.8223998159205621,-1.60029102,-31.6,-93.29,87.67,87770,31936,0,229.4602130403009,300,0,0,1,0
1670699048194.00,0.24267706160860786,0.34244605383978993,-1.799819085,-60.14,-33.92,68.86,89003,31936,0,232.69190044591323,301,0,0,1,0
1670699048200.00,-0.247322772,-0.117491407,-0.909344326,-137.36,56.17,26.35,89003,31936,0,232.69190044591323,302,0,0,1,0
1670699048210.00,-0.46731494,0.042588669388004374,0.24113224005064723,-192.9,139.77,-17.68,91052,31936,0,238.06232014915705,303,0,0,1,0
1670699048216.00,-0.367298872,0.29268747,0.7316099121156057,-198.82,157.32,-24.05,91052,31936,0,238.06232014915705,304,0,0,1,1
1670699048226.00,0.13272612644877832,0.1528061441944439,1.2920879821938627,-184.76,151.48,-17,91253,31936,0,238.5891402371765,305,0,0,1,1
1670699048232.00,0.17276083895035732,0.042945783,1.1625654737250202,-186.32,147.95,-20.99,91253,31936,0,238.5891402371765,305,0,0,1,1
1670699048242.00,0.2728060535683777,-0.346892574,0.6630410052555001,-223.76,134.76,-10.72,89604,31936,0,234.26711871904624,307,0,0,1,1
1670699048248.00,0.4028624912374534,-0.456707869,0.5535127942389804,-269.51,132.58,12.57,89604,31936,0,234.26711871904624,307,0,0,1,1
1670699048258.00,0.41293076102776055,0.023501043631339286,0.23397874963114054,-278.14,162.54,20.52,89333,31936,0,233.55682894863185,309,0,0,1,1
1670699048264.00,0.4130113286955016,0.5237353978124613,-0.345563412,-273.15,189.01,28.52,89333,31936,0,233.55682894863185,309,0,0,1,1
1670699048274.00,0.6831044929606884,1.3039963918085324,-0.645116032,-278.8,138.99,42.43,91300,31936,0,238.71232702392737,311,0,0,0,1
1670699048280.00,0.7232103532997786,1.6442849839195937,-0.75468135,-274.08,82.46,44.52,91300,31936,0,238.71232702392737,311,0,0,0,1
1670699048290.00,-0.116671214,2.474601658693693,-0.654261394,-215.67,-52.78,9.19,95019,31936,0,248.4598092,312,0,0,0,1
1670699048296.00,-0.346540498,2.774946195350062,-0.573857923,-189.2,-48.22,-17.34,95019,31936,0,248.4598092,313,0,0,0,1
1670699048306.00,-0.156397823,2.715317461632046,0.026527550112850462,-125.53,35.73,-65.75,102916,31936,0,269.1578103196228,314,0,0,0,1
1670699048312.00,0.4837565373894545,1.5657133121559887,0.5568936633163534,-21.86,100.82,-74.97,102916,31936,0,269.1578103196228,315,0,0,0,1
1670699048322.00,0.5839223071359405,0.046130699255297725,0.2072390653791228,91.61,-0.25,-54.93,110955,31936,0,290.22799284494096,316,0,0,0,0
1670699048328.00,0.344099095,-0.813433983,0.2375623063177665,173.55,-164.35,-48.21,110955,31936,0,290.22799284494096,317,0,0,0,0
1670699048338.00,-0.085713654,-0.622984477,-0.732138157,194.9,-233.19,-58.05,112556,31936,0,294.42420658085763,318,0,0,0,0
1670699048344.00,-0.235516602,-0.262524374,-1.381863828,178.74,-194.29,-58.59,112556,31936,0,294.42420658085763,319,1,0,0,0
1670699048354.00,0.32468956756478595,-0.212057064,-2.011615946,164.26,-46.77,-22.02,112775,31936,0,294.9982045872073,320,1,0,0,0
1670699048360.00,0.5749041601687543,-0.18158579,-2.401395211,170.06,-42.88,-31.12,112775,31936,0,294.9982045872073,321,1,0,0,0
1670699048370.00,1.1451263723711944,-0.191113695,-2.871201557,163.41,-137.06,-41.72,110990,31936,0,290.3197276861384,322,1,0,0,0
1670699048376.00,1.745355130363459,-0.180643848,-2.271033981,151.75,-236.06,-52.1,110990,31936,0,290.3197276861384,323,1,0,0,0
1670699048386.00,0.9455889257959069,-0.390179234,-2.210890477,136.65,-283.58,-52.84,112067,31936,0,293.1425397995564,324,1,0,0,0
1670699048392.00,-1.134174206,-0.709722734,-1.920768085,150.31,-286.72,-47.46,112067,31936,0,293.1425397995564,325,1,0,0,0
1670699048402.00,-1.763936415,-1.45927704,0.5593369612443164,160.43,-244.33,-28.17,116322,31936,0,304.29487549370106,326,1,1,0,0
1670699048408.00,-1.663699604,-2.448844486,2.2294288813946963,195.09,-170.17,-6.28,116322,31936,0,304.29487549370106,327,1,1,0,0
1670699048418.00,-0.523465142,-2.438426804,1.1995118061339909,284.1,-37.02,25.03,115661,31936,0,302.56239749280104,328,1,1,0,0
1670699048424.00,-0.313233886,-1.778024907,1.4095893696401167,262.54,17.18,11.46,115661,31936,0,302.56239749280104,329,0,1,0,0
1670699048434.00,0.6769936121137274,-0.187638881,0.44966463835804615,202.89,106.22,-32,106626,31936,0,278.88170348655035,330,0,1,0,0
1670699048440.00,1.6172168308844903,0.24273177120576095,0.16974024341014793,198.62,166.94,-54.56,106626,31936,0,278.88170348655035,330,0,1,0,0
1670699048450.00,2.1274349784594673,1.103087760834751,1.6398185202406983,67.44,148.83,-74.99,99749,31936,0,260.8571176889868,332,0,1,0,0
1670699048456.00,1.0776467219249262,0.8434296954615892,0.979901511,87.37,43.24,-76.25,99749,31936,0,260.8571176889868,332,0,1,0,0
1670699048466.00,-0.872149854,0.13375791032837223,-1.230009083,155.81,-75.04,-53.75,97998,31936,0,256.2677546336526,334,0,1,0,0
1670699048472.00,-2.951956918,-0.925927492,-0.369911744,150.27,-145.09,-41.31,97998,31936,0,256.2677546336526,334,0,1,0,0
1670699048482.00,-3.75177628,-1.575626409,1.9901950811215476,7.15,99.96,-6.47,97019,31936,0,253.70180007558736,335,0,1,0,0
1670699048488.00,-2.531608812,-1.945338427,1.8803128511708445,38.63,149.84,18.22,97019,31936,0,253.70180007558736,336,0,1,0,0
1670699048498.00,0.5285457331972105,-2.155062562,1.450442572,24.99,42.61,50.86,93008,31936,0,243.18898727436195,337,0,0,0,0
1670699048504.00,0.21868836916379095,-1.564797103,1.760584589627036,-79.14,85.93,59.86,93008,31936,0,243.18898727436195,338,0,0,0,0
1670699048514.00,-0.011179644,-0.434539617,1.9207385727649844,-106.88,29.84,146.32,89405,31936,0,233.74554062195227,339,0,0,0,0
1670699048520.00,0.5289429205064784,0.505712859,1.1809035135985173,-50.01,22.4,205.19,89405,31936,0,233.74554062195227,340,0,0,0,0
1670699048530.00,0.9290571780541552,1.3859634766835556,0.031077786543272007,25.51,-14.48,202.27,87662,31936,0,229.1771455303203,341,0,0,0,0
1670699048536.00,0.26916406255236436,1.4662152192798663,-0.298740642,30.14,-102.83,152,87662,31936,0,229.1771455303203,342,0,0,0,0
1670699048546.00,-0.200735706,1.1964706475517908,-1.03855392,3.75,-145.77,105.45,87079,31936,0,227.6491051755174,343,0,0,0,0
1670699048552.00,-0.190641528,1.106731804770347,-1.518364042,-2.43,-121.24,93.28,87079,31936,0,227.6491051755174,344,0,0,1,0
1670699048562.00,-0.200552802,0.20700025872325628,-1.45817263,-18.6,4.49,54.72,87458,31936,0,228.6424624559124,345,0,0,1,0
1670699048568.00,-0.450468851,-0.032722764,-1.147980795,-91.62,57.66,32.72,87458,31936,0,228.6424624559124,346,0,0,1,0
1670699048578.00,-0.720388883,-0.132436202,-0.337789127,-175.69,146.72,-5.4,87765,31936,0,229.4471081,347,0,0,1,0
1670699048584.00,-0.260311933,0.047860975,0.8924021493867902,-224.24,190.71,-13.37,87765,31936,0,229.4471081,348,0,0,1,1
1670699048594.00,0.38976313462687123,-0.061830188,1.4025928862048547,-213.46,172.51,-23.57,88504,31936,0,231.38402370998415,349,0,0,1,1
1670699048600.00,0.5798375268672366,-0.201508627,1.0827826983632574,-207.86,161.8,-43.35,88504,31936,0,231.38402370998415,350,0,0,1,1
1670699048610.00,0.5899123627522423,-0.351173243,0.8929707796664595,-249.5,156.99,-20.96,88177,31936,0,230.52695819365388,351,0,0,1,1
1670699048616.00,0.5699885692160088,-0.430822855,0.8931558883195169,-267.86,153.43,1.58,88177,31936,0,230.52695819365388,352,0,0,1,1
1670699048626.00,0.47006684874955423,0.10954383195687337,0.5533364029727194,-286.38,148.68,53.87,87714,31936,0,229.31343729438504,353,0,0,1,1
1670699048632.00,0.4801476863539987,0.3199281986402835,0.19351039248558272,-284.26,145.57,66.33,87714,31936,0,229.31343729438504,353,0,0,1,1
1670699048642.00,0.4302313664697717,1.0303316035879035,-0.656324271,-266.9,113.83,69.15,89513,31936,0,234.0286081319329,355,0,0,0,1
1670699048648.00,-0.089682,1.700755212017023,-1.076169731,-259.61,34.73,61.73,89513,31936,0,234.0286081319329,355,0,0,0,1
1670699048658.00,-0.729592399,2.431199769983337,-0.856027935,-266.98,-26.89,38.45,93496,31936,0,244.4680330602004,357,0,0,0,1
1670699048664.00,-0.65949977,3.5416653273557936,-0.315900517,-225.73,55.71,-12.1,93496,31936,0,244.4680330602004,357,0,0,0,1
1670699048674.00,0.6005961083260656,3.2121509413284772,0.22421116730039323,-101.38,182.26,-38.26,99375,31936,0,259.8768653859057,358,0,0,0,1
1670699048680.00,1.340695535675706,2.4126544734567212,0.2543058929573402,-26.78,161.74,-49.75,99375,31936,0,259.8768653859057,359,0,0,0,0
1670699048690.00,1.140798644,0.303172642,-0.175617567,181.57,-108.45,-68.43,101996,31936,0,266.7464944938618,360,0,0,0,0
1670699048696.00,0.9709051840156732,-0.096298631,-0.425560463,216.41,-197.29,-65.73,101996,31936,0,266.7464944938618,361,1,0,0,0
1670699048706.00,0.5310144754763118,-0.52576377,-1.275523977,248.36,-286.4,-54.51,105141,31936,0,274.98952522431654,362,1,0,0,0
1670699048712.00,0.031125493,-0.505227206,-1.795509044,216.1,-227.43,-48.39,105141,31936,0,274.98952522431654,363,1,0,0,0
1670699048722.00,0.14123699858519057,-0.57469323,-2.555516117,195.82,-138.74,-45.57,104842,31936,0,274.20584758094424,364,1,0,0,0
1670699048728.00,0.6513476435009088,-0.564165926,-2.975544915,171.39,-162.37,-53.31,104842,31936,0,274.20584758094424,365,1,0,0,0
1670699048738.00,1.1814559461052212,-0.543649162,-2.5955942,138.21,-258.27,-44.25,105243,31936,0,275.2568667615205,366,1,0,0,0
1670699048744.00,0.9615601708022542,-0.763146576,-2.615661668,135.71,-285.36,-38.23,105243,31936,0,275.2568667615205,367,1,0,0,0
1670699048754.00,0.051658239,-1.322661548,-0.755743983,132.72,-286.45,-59.13,111472,31936,0,291.5830474992001,368,1,1,0,0
1670699048760.00,-1.138252181,-1.632197099,0.4741629774178274,170.84,-273.85,-45.65,111472,31936,0,291.5830474992001,369,1,1,0,0
1670699048770.00,-3.768173349,-1.921755754,1.2240636979618396,249.88,-190.62,9.17,118007,31936,0,308.7112528484916,370,1,1,0,0
1670699048776.00,-2.128106952,-2.141339398,1.583962570322167,286.05,-6.81,15.15,118007,31936,0,308.7112528484916,371,0,1,0,0
1670699048786.00,-0.748053772,-1.280949185,1.8238635713625053,275.33,114.46,-34.83,112488,31936,0,294.2459788893884,372,0,1,0,0
1670699048792.00,1.0919861797334005,-0.540585576,0.2737701181633109,250.82,172.09,-47.55,112488,31936,0,294.2459788893884,373,0,1,0,0
1670699048802.00,2.032013151736747,0.5397514609474258,1.063685112457346,131.09,150.74,-56.27,106609,31936,0,278.8371466,374,0,1,0,0
1670699048808.00,1.8820271060755036,1.1100621399067157,1.8436110414319864,75.9,125.64,-56.06,106609,31936,0,278.8371466,375,0,1,0,0
1670699048818.00,-0.047972576,0.4303465577762756,-0.246450017,133.06,16.6,-77.2,104158,31936,0,272.4130866844002,376,0,1,0,0
1670699048824.00,-0.767987,0.020604561639341715,-0.85649633,146.73,-106.08,-74.94,104158,31936,0,272.4130866844002,376,0,1,0,0
1670699048834.00,-3.598017339,-1.829164146,1.293473718593231,94.17,-46.36,-13.64,101383,31936,0,265.1398242751754,378,0,1,0,0
1670699048840.00,-2.348064271,-2.568959692,1.2234616890776067,128.66,103.22,62.51,101383,31936,0,265.1398242751754,378,0,1,0,0
1670699048850.00,-0.228127624,-2.928781609,1.4634688824376727,24.88,39.85,48.36,96136,31936,0,251.3874610819493,380,0,0,0,0
1670699048856.00,-0.258206461,-1.618628533,2.063496111223961,-79.18,57.94,28.42,96136,31936,0,251.3874610819493,380,0,0,0,0
1670699048866.00,-0.308299458,-0.418498189,2.133543555566629,-101.95,17.31,105.91,91357,31936,0,238.86172376530607,381,0,0,0,0
1670699048872.00,0.35159485282769665,0.42161232917838354,1.4336106616507127,-81.22,23.84,176.11,91357,31936,0,238.86172376530607,382,0,0,0,0
1670699048882.00,0.9114779591419244,1.2617061523061035,0.3336961626485623,18.13,15.94,182.9,89478,31936,0,233.9368732907355,383,0,0,0,0
1670699048888.00,0.8813512198547392,1.481786265796588,-0.02620172,36.59,-12.73,168.95,89478,31936,0,233.9368732907355,384,0,0,0,0
1670699048898.00,-0.118784255,1.0518552610449141,-0.776084988,14.71,-110.87,94.87,88901,31936,0,232.4245589087093,385,0,0,0,0
1670699048904.00,-0.16892757,0.921915243,-1.215955602,-15.08,-136.1,84.35,88901,31936,0,232.4245589087093,386,0,0,1,0
1670699048914.00,0.2209220874481349,0.441967878,-1.735815247,-24.63,-84.97,67.65,89346,31936,0,233.59090188964805,387,0,0,1,0
1670699048920.00,0.020765523243653536,-0.247985486,-1.275665143,-88.56,10.04,19.47,89346,31936,0,233.59090188964805,388,0,0,1,0
1670699048930.00,-0.429396461,0.12205633495470991,-0.325505973,-168.21,99.01,-24.16,91027,31936,0,237.99679526258743,389,0,0,1,0
1670699048936.00,-0.609563028,0.5420944712212913,0.8346619839460462,-197.27,137.92,-25.57,91027,31936,0,237.99679526258743,390,0,0,1,0
1670699048946.00,-0.44973321,0.32212998544846194,1.1348385584657812,-174.81,168.82,-4.78,90938,31936,0,237.76352666639968,391,0,0,1,1
1670699048952.00,-0.279905855,0.1021638186534777,1.0750233793574704,-168.86,188.3,-7.07,90938,31936,0,237.76352666639968,392,0,0,1,1
1670699048962.00,0.039920356,-0.367803195,0.7752157041685999,-225.82,215.39,-22.29,89959,31936,0,235.19757210833444,393,0,0,1,1
1670699048968.00,0.099746836,-0.54777023,0.755414399,-254.91,210.3,-15.56,89959,31936,0,235.19757210833444,394,0,0,1,1
1670699048978.00,0.29957501362768213,-0.627736356,0.6056179892930869,-284.05,204.43,17.71,89584,31936,0,234.21469880979052,395,0,0,1,1
1670699048984.00,0.5194062647403013,-0.257700458,0.19582471590605274,-284.49,218.33,48.07,89584,31936,0,234.21469880979052,396,0,0,0,1
1670699048994.00,0.659241839,0.4823387541117937,-0.273967377,-280.86,210.81,60.01,91239,31936,0,238.5524463006976,397,0,0,0,1
1670699049002.00,0.18908280769637212,2.0423825826586035,-0.823760306,-255.7,82.59,72.94,93396,31936,0,244.2059335,398,0,0,0,1
1670699049008.00,-0.561069923,2.442432036021433,-0.723555982,-238.65,3.72,63.55,93396,31936,0,244.2059335,399,0,0,0,1
1670699049018.00,-0.831215477,2.7124874636389675,-0.713356079,-209.9,51.42,8.43,98891,31936,0,258.60830358191845,400,0,0,0,1
1670699049024.00,0.2186471502891893,2.372548303845373,-0.053162001,-176.1,123.66,-20.32,98891,31936,0,258.60830358191845,400,0,0,0,1
1670699049034.00,1.2785190828318629,1.362613023738116,0.3470250416553482,-8.69,172.08,-66.84,106614,31936,0,278.8502515409969,402,0,0,0,0
1670699049040.00,1.2584013510271952,0.4226792573325513,0.3372038957073059,62.27,95.24,-75.05,106614,31936,0,278.8502515409969,402,0,0,0,0
1670699049050.00,1.0182946417012695,-0.767255893,0.1673733397538928,162.9,-108.95,-81.21,112067,31936,0,293.1425397995564,404,1,0,0,0
1670699049056.00,1.028199193110926,-0.59719549,-0.402467938,201.18,-247.41,-73.19,112067,31936,0,293.1425397995564,404,1,0,0,0
1670699049066.00,0.9781148067090235,-0.057142501,-1.502321238,168.64,-232.09,-82.8,110002,31936,0,287.73018416890807,405,1,0,0,0
1670699049072.00,0.17804089507117027,0.14290026971147235,-2.472187616,176.29,-163.25,-70.83,110002,31936,0,287.73018416890807,406,1,0,0,0
1670699049082.00,-0.552023408,-0.027069913,-2.752067549,183.03,-162.57,-48.68,109247,31936,0,285.7513325945064,407,1,0,0,0
1670699049088.00,0.24792093200469975,-0.427055769,-2.951960639,169.73,-175.57,-49.09,109247,31936,0,285.7513325945064,408,1,0,0,0
1670699049098.00,1.297872930405956,-0.697059968,-2.701865428,145.4,-204.14,-22.92,112292,31936,0,293.73226377868275,409,1,0,0,0
1670699049104.00,1.5378314499034393,-0.607085032,-2.761779342,151.68,-244.77,-16.63,112292,31936,0,293.73226377868275,410,1,0,0,0
1670699049114.00,0.9977949692660132,-1.907133227,1.068301210164154,157.64,-286.72,-49.53,117783,31936,0,308.12414986482804,411,1,0,0,0
1670699049120.00,-0.552238484,-2.467206397,2.0683804157539143,221.73,-286.72,-53.37,117783,31936,0,308.12414986482804,412,1,1,0,0
1670699049130.00,-2.862271092,-3.257305693,1.8384623947072014,263.93,-210.81,10.07,124114,31936,0,324.7176721397116,413,1,1,0,0
1670699049136.00,-2.562304742,-2.007431319,1.3485507021731924,265.91,-40.92,-53.96,124114,31936,0,324.7176721397116,414,1,1,0,0
1670699049146.00,-0.962340582,-0.487582484,0.47864823868765494,212.72,125.15,-98.54,117337,31936,0,306.9551858884265,415,0,1,0,0
1670699049152.00,1.797620971731565,0.5622423241871856,0.6187574047773936,138.86,178.29,-69.01,117337,31936,0,306.9551858884265,416,0,1,0,0
1670699049162.00,1.6175797561908538,0.9820448922110998,1.8388802413441814,32.23,141.84,-83.87,110326,31936,0,288.5793867,417,0,1,0,0
1670699049168.00,1.1575353080833084,0.9318268994835045,0.9590184079212668,80.92,95.07,-84.89,110326,31936,0,288.5793867,418,0,1,0,0
1670699049178.00,-1.322513316,0.20158973670475017,-1.910826833,148.09,42.05,-31.36,108261,31936,0,283.16703106820165,419,0,1,0,0
1670699049184.00,-2.582567241,-0.538665464,-0.130654367,129.3,-31.34,-32.72,108261,31936,0,283.16703106820165,420,0,1,0,0
1670699049194.00,-3.842627198,-1.328937629,1.999537027743922,80.55,140.46,23.51,105180,31936,0,275.0917440473651,421,0,1,0,0
1670699049200.00,-0.432693035,-2.089225467,0.5197485463341661,167.16,164.23,128.12,105180,31936,0,275.0917440473651,422,0,0,0,0
1670699049210.00,1.1172362842384134,-1.979527178,1.1599810651732103,-25.94,60.12,82.1,96565,31936,0,252.51186813548355,423,0,0,0,0
1670699049216.00,0.5271621806618229,-0.969840281,2.8402349998848426,-148.09,34.52,94.34,96565,31936,0,252.51186813548355,423,0,0,0,0
1670699049226.00,0.5170859830354106,-0.14016166,2.2905101502786986,-74.16,-14.24,180.57,91558,31936,0,239.3885438533256,425,0,0,0,0
1670699049232.00,0.8570087673111086,0.1395122081095862,1.5108054962235864,-9.17,0.14,204.84,91558,31936,0,239.3885438533256,425,0,0,0,0
1670699049242.00,1.4469313300067022,0.969184976,-0.408880778,52.01,-40.8,187.58,88753,31936,0,232.0366515802173,427,0,0,0,0
1670699049248.00,0.8568541089209946,1.0788601881708526,-0.458550961,22.5,-93.31,159.21,88753,31936,0,232.0366515802173,427,0,0,0,0
1670699049258.00,-0.023222858,0.8985411055454084,-0.698207426,-57.44,-208.19,130.65,88052,31936,0,230.19933376080596,428,0,0,1,0
1670699049264.00,-0.023299824,0.7782306172271033,-1.267852373,-62.83,-175.91,123.86,88052,31936,0,230.19933376080596,429,0,0,1,0
1670699049274.00,-0.233377152,0.6379312527725112,-1.337487679,-58.73,-77.54,90.31,87591,31936,0,228.99105485246264,430,0,0,1,0
1670699049280.00,-0.953455173,0.18764524039474573,-0.39711481,-127.08,41.86,53.96,87591,31936,0,228.99105485246264,431,0,0,1,0
1670699049290.00,-1.193534057,0.037374593132305456,0.23326514562605083,-165.83,150.62,48.79,88484,31936,0,231.3316038007285,432,0,0,1,0
1670699049296.00,-0.973613662,-0.02287879,0.613651288,-179.07,179.68,51.76,88484,31936,0,231.3316038007285,433,0,0,1,0
1670699049306.00,-0.073693469,-0.203113044,0.9640426685636763,-199.84,199.71,49.83,87573,31936,0,228.94387693413253,434,0,0,1,1
1670699049312.00,0.066227336,-0.333326278,0.7744381179176562,-210.47,197.84,46.84,87573,31936,0,228.94387693413253,435,0,0,1,1
1670699049322.00,0.2961496914595914,-0.633516523,0.6748361616368839,-253.85,207.7,57.07,87182,31936,0,227.9190677081841,436,0,0,1,1
1670699049328.00,0.6260745108997422,-0.19368167,0.6352350146475263,-281.83,231.85,80.2,87182,31936,0,227.9190677081841,437,0,0,1,1
1670699049338.00,0.8360025765868904,0.28618053612373434,0.2356326203228335,-284.37,242.79,92.42,87473,31936,0,228.68177738785417,438,0,0,1,1
1670699049344.00,1.2359344313580782,0.7860724017929442,-0.14397328,-286.61,189.99,106.41,87473,31936,0,228.68177738785417,439,0,0,0,1
1670699049354.00,1.4658702632239848,1.5259961094123635,-0.453585033,-282.2,63.31,92.36,88818,31936,0,232.20701628529824,440,0,0,0,1
1670699049360.00,0.78580981,2.145953494339298,-0.653204945,-262.99,-8.91,73.99,88818,31936,0,232.20701628529824,441,0,0,0,1
1670699049370.00,-0.43424762,2.365945804891494,-0.792835157,-188.12,-146.45,28.39,91575,31936,0,239.4331007761929,442,0,0,0,1
1670699049376.00,-0.864302951,2.3859735008327143,-0.672477571,-176.5,-122.97,17.25,91575,31936,0,239.4331007761929,443,0,0,0,1
1670699049386.00,-0.974357044,2.436036136896681,-0.032133824,-130.04,21.36,-14.38,93416,31936,0,244.25835342317768,444,0,0,0,1
1670699049392.00,0.35558947918389694,1.8061323330951529,0.768194627,-46.68,64.8,-28.39,93416,31936,0,244.25835342317768,445,0,0,0,0
1670699049402.00,0.7555361872404032,0.6762598507662421,0.5185063261059986,92.72,-59.24,-53.24,93185,31936,0,243.65290347127464,446,1,0,0,0
1670699049408.00,1.0454826118084366,-0.033584188,-1.171200299,199.61,-249.64,-54.75,93185,31936,0,243.65290347127464,446,1,0,0,0
1670699049418.00,0.755428037,-0.043403,-2.800926789,218.29,-286.7,-56.04,94126,31936,0,246.1192602017541,448,1,0,0,0
1670699049424.00,0.12537142938480544,0.3868000875753831,-2.300674241,188.68,-279.88,-58.75,94126,31936,0,246.1192602017541,448,1,0,0,0
1670699049434.00,-0.194688491,0.4670216877712695,-2.020442951,171.21,-209.19,-16.72,95725,31936,0,250.31023194674523,450,1,0,0,0
1670699049440.00,-0.174753098,0.3972583057099053,-2.400232299,182.03,-175.43,-12.85,95725,31936,0,250.31023194674523,450,1,0,0,0
1670699049450.00,1.055176221,-0.342493692,-2.830040755,167.28,-162.43,-23.89,97792,31936,0,255.72782956831912,451,1,0,0,0
1670699049456.00,1.4350979831163524,-0.44223801,-2.239865832,147.53,-231.13,-43.96,97792,31936,0,255.72782956831912,452,1,0,0,0
1670699049466.00,1.0050103984583472,-1.041978282,0.4102958839298658,156.21,-286.71,-67.72,102261,31936,0,267.4410582914995,453,1,0,0,0
1670699049472.00,-1.715088694,-2.071717896,2.6004483789937853,220.97,-286.67,-26.77,102261,31936,0,267.4410582914995,454,1,1,0,0
1670699049482.00,-2.135201552,-3.361459741,-0.029404388,286.4,-260.38,62.95,106744,31936,0,279.1909809511588,455,1,1,0,0
1670699049488.00,-2.995330024,-2.401205886,1.9307411235335499,285.41,-86.76,-16.71,106744,31936,0,279.1909809511588,456,0,1,0,0
1670699049498.00,-1.705475153,-1.420957387,0.4508879837955867,265.07,138.34,-70.15,105103,31936,0,274.88992739673074,457,0,1,0,0
1670699049504.00,-0.145637101,-0.710714398,-0.388961122,271.79,214.93,-77.36,105103,31936,0,274.88992739673074,458,0,1,0,0
1670699049514.00,1.3341845546174849,1.329523503490318,2.301196211850017,79.36,279.05,-64.99,98618,31936,0,257.8927718205785,459,0,1,0,0
1670699049520.00,1.3939903379759833,1.3997568801483724,1.4213620930974113,74.51,222.39,-47.86,98618,31936,0,257.8927718205785,460,0,1,0,0
1670699049530.00,0.35378048165241704,0.5599860478044045,0.081538167,153.52,119.85,-43.28,96267,31936,0,251.7308115,461,0,1,0,0
1670699049536.00,-0.126445152,0.4802109302892946,-2.278274303,165.11,36.49,-15.43,96267,31936,0,251.7308115,462,0,1,0,0
1670699049546.00,-4.016686812,-1.159568824,1.3419259268585408,72.86,48.99,-19.39,96494,31936,0,252.32577745762592,463,0,1,0,0
1670699049552.00,-3.066944324,-2.099353562,1.4321402288016734,86.21,188.33,35.46,96494,31936,0,252.32577745762592,464,0,1,0,0
1670699049562.00,0.4327833897316625,-2.809143238,1.3523698232335142,23.98,105.18,71.64,93349,31936,0,244.0827467271712,465,0,0,0,0
1670699049568.00,0.5524982107652477,-2.38893705,1.3526154703098126,-61.6,121.7,68.13,93349,31936,0,244.0827467271712,466,0,0,0,0
1670699049578.00,0.3722022982661217,-0.508733286,2.382877357068411,-150.18,103.32,166.5,88628,31936,0,231.7090271473693,467,0,0,0,0
1670699049584.00,0.5918977100864133,0.1614705032333852,1.9431550112813547,-104.47,74.94,205.8,88628,31936,0,231.7090271473693,468,0,0,0,0
1670699049594.00,1.2715862916931349,1.2316771052673279,0.7934472217855669,-5.64,55.03,218.38,86869,31936,0,227.0986961283328,469,0,0,0,0
1670699049600.00,1.3312695889924442,1.6618892284542237,0.083752134,46.02,-27.32,181.67,86869,31936,0,227.0986961283328,469,0,0,0,0
1670699049610.00,0.6109487412031087,1.352109194257339,-0.385932478,28.74,-175.34,131.01,87232,31936,0,228.0501174813233,471,0,0,1,0
1670699049616.00,-0.029375514,0.9723387893766913,-1.025608915,-4.62,-184.3,101.53,87232,31936,0,228.0501174813233,471,0,0,1,0
1670699049626.00,-0.139702687,0.7225792866121714,-1.505279309,-5.43,-108.61,84.75,87081,31936,0,227.65434716644296,473,0,0,1,0
1670699049632.00,-0.260032359,0.6328315490291331,-1.35494542,-18.66,-61.84,63.18,87081,31936,0,227.65434716644296,473,0,0,1,0
1670699049642.00,-0.860364055,0.1730961333714532,-0.184608526,-103.55,105.85,4.72,87662,31936,0,229.1771455303203,475,0,0,1,0
1670699049648.00,-0.730697142,0.083373386,0.2757304788925244,-136.4,148.2,-0.2,87662,31936,0,229.1771455303203,475,0,0,1,0
1670699049658.00,-0.081030754,-0.386336453,0.8060708579244927,-176.78,198.37,-5.09,88307,31936,0,230.86768760381577,476,0,0,1,1
1670699049664.00,0.31863617754143303,-0.376033139,0.7964117830175039,-193.71,184.67,-21.55,88307,31936,0,230.86768760381577,477,0,0,1,1
1670699049674.00,0.35830478510155644,-0.845716327,0.6467521873476301,-235.88,153.29,-10.78,89410,31936,0,233.7586455992662,478,0,0,1,1
1670699049680.00,0.4379761346800911,-0.735385474,0.7570907142007005,-284.88,166.68,21.73,89410,31936,0,233.7586455992662,479,0,0,1,1
1670699049690.00,0.5876511500666295,0.084960207,0.5674257208274431,-286.72,182.75,47.58,92007,31936,0,240.56537081611543,480,0,0,1,1
1670699049696.00,0.6973305697905462,0.43532168764335316,0.3377553017541778,-286.71,185.92,53.19,92007,31936,0,240.56537081611543,481,0,0,0,1
1670699049706.00,1.257014891,1.7056999356958622,-0.031922658,-255.77,85.5,64.88,95618,31936,0,250.02978543222736,482,0,0,0,1
1670699049712.00,1.3167042782093215,2.066095641446976,-0.061610395,-230.98,2.5,57.49,95618,31936,0,250.02978543222736,483,0,0,0,1
1670699049722.00,0.6663984763136561,2.2365089326352687,-0.301310174,-178.2,-146.01,19.64,100989,31936,0,264.1071520628386,484,0,0,0,1
1670699049728.00,-0.323903169,1.7969391788212765,-0.571024213,-139.87,-151.33,-19.52,100989,31936,0,264.1071520628386,485,0,0,0,1
1670699049738.00,-0.82420152,1.6173849465765513,-0.200754616,-116,-7.6,-27.65,106846,31936,0,279.45832248836274,486,0,0,0,1
1670699049744.00,-0.214497403,1.1678440684015277,0.4894966395091724,-47.39,61.46,-25.86,106846,31936,0,279.45832248836274,487,0,0,0,0
1670699049754.00,-0.144791483,0.46831377149808484,0.6997276027050422,36.58,-16.95,-55.25,116093,31936,0,303.6946675327236,488,0,0,0,0
1670699049760.00,0.044915716,-0.141209141,0.039936213640076684,92.53,-94.29,-65.29,116093,31936,0,303.6946675327236,489,0,0,0,0
1670699049770.00,-0.18537627,-0.020728079,-1.269879709,190.39,-253.54,-94.14,120950,31936,0,316.4248425,490,1,0,0,0
1670699049776.00,-0.095667871,-0.000246503,-1.43972227,172.55,-226.44,-85.82,120950,31936,0,316.4248425,491,1,0,0,0
1670699049786.00,0.6040405068880385,-0.469767859,-2.159593212,176.71,-124.5,-62.72,119667,31936,0,313.0621053167125,492,1,0,0,0
1670699049792.00,0.583748412,-0.439295528,-2.749493648,182.44,-89.09,-68.9,119667,31936,0,313.0621053167125,492,1,0,0,0
1670699049802.00,0.9334552353795459,-0.198832771,-2.83942385,131.4,-178.35,-49.36,118808,31936,0,310.81067021418136,494,1,0,0,0
1670699049808.00,1.2531600994569294,-0.418382707,-2.359383085,113.16,-270.57,-60.6,118808,31936,0,310.81067021418136,494,1,0,0,0
1670699049818.00,0.15286178396890335,-0.537948315,-2.159369576,112.78,-286.72,-82.22,121525,31936,0,317.93191488656464,496,1,0,0,0
1670699049824.00,-1.307441209,-0.957532401,-0.199380623,118.41,-286.72,-74.04,121525,31936,0,317.93191488656464,496,1,0,0,0
1670699049834.00,-1.877750371,-2.647137485,1.0605870988262136,230.25,-129.82,-32.04,128878,31936,0,337.2040945244132,498,1,1,0,0
1670699049840.00,-1.54806682,-2.90676554,1.260537080586313,254.44,-87.13,-6.43,128878,31936,0,337.2040945244132,498,1,1,0,0
1670699049850.00,-1.278391077,-1.45641771,1.4704725656233844,252.07,-21.03,-32.44,127429,31936,0,333.4062720988396,499,0,1,0,0
1670699049856.00,-1.168723057,-0.77609425,1.2103963311114354,210.63,109.15,-78.08,127429,31936,0,333.4062720988396,500,0,1,0,0
1670699049866.00,0.9309378111238982,0.18420523070961364,0.05031066,195.63,202.94,-79.01,116266,31936,0,304.1480997477852,501,0,1,0,0
1670699049872.00,2.2905922900960434,0.9844814150616354,1.130217442495583,110.88,193.39,-90.89,116266,31936,0,304.1480997477852,502,0,1,0,0
1670699049882.00,1.3802408887931887,0.93473495,0.8401182705008988,106.59,132.06,-105.53,107145,31936,0,280.24200013173504,503,0,1,0,0
1670699049888.00,-0.820116408,0.004966243,-0.769985533,173.88,59.74,-73.75,107145,31936,0,280.24200013173504,504,0,1,0,0
1670699049898.00,-1.460479955,0.1151754543077069,-1.770092765,142.5,53.73,-40.09,104582,31936,0,273.52438876062047,505,0,1,0,0
1670699049904.00,-1.980849984,-0.174637379,-0.470202029,111.61,29.54,-51.16,104582,31936,0,273.52438876062047,506,0,1,0,0
1670699049914.00,-2.411226203,-1.954472198,1.6796883963824196,76.74,100.32,23.36,101687,31936,0,265.93660689586164,507,0,1,0,0
1670699049920.00,-0.131607615,-2.344328672,1.339580297070653,99.01,16.15,50.77,101687,31936,0,265.93660689586164,508,0,0,0,0
1670699049930.00,0.7380073682787119,-2.074205882,2.199475110969439,-57.38,-7.91,23.08,95774,31936,0,250.43866072442165,509,0,0,0,0
1670699049936.00,0.40762056079268516,-1.154102118,2.8293736294290524,-112.28,-3.67,78.53,95774,31936,0,250.43866072442165,510,0,0,0,0
1670699049946.00,0.8272336775585271,-0.194014963,1.9092758092004962,-35.56,-24.77,156.27,91745,31936,0,239.8786700048661,511,0,0,0,0
1670699049952.00,1.286848188,0.7260584456062154,0.37918073082290793,34.29,-51.62,164.6,91745,31936,0,239.8786700048661,512,0,0,0,0
1670699049962.00,0.7664652302951838,1.1661210601857555,-0.400913176,30.1,-126.05,139.09,89910,31936,0,235.06914333065805,513,0,0,0,0
1670699049968.00,0.28608557504621795,1.0161756329389837,-0.481007747,3.75,-174.88,125.74,89910,31936,0,235.06914333065805,514,0,0,1,0
1670699049978.00,-0.80429028,0.946224549,-1.371104761,-41.6,-168.49,70.34,89611,31936,0,234.2854656872857,515,0,0,1,0
1670699049984.00,-0.734661891,1.0962697835870612,-1.441205723,-43.57,-118.78,59.92,89611,31936,0,234.2854656872857,516,0,0,1,0
1670699049994.00,-0.735028647,0.7963129130825979,-0.741311711,-60.14,7.76,28.76,88574,31936,0,231.56749339237905,517,0,0,1,0
1670699050002.00,-0.675389666,0.096355147,0.13857663151567107,-122.25,182.63,2.78,88197,31936,0,230.5793781029096,518,0,0,1,0
1670699050009.00,0.094256202,-0.173602564,0.9584589122394583,-177.7,216.53,-2.11,88197,31936,0,230.5793781029096,519,0,0,1,1
1670699050018.00,0.3039102841235031,-0.093559368,1.0983347048958498,-204.55,179.2,-25.47,87550,31936,0,228.88359403848847,520,0,0,1,1
1670699050025.00,0.3135739406656211,-0.283514402,0.8482033137791558,-219.27,143.27,-33.08,87550,31936,0,228.88359403848847,520,0,0,1,1
1670699050034.00,0.3532484534484181,-0.60346673,0.8180636747084188,-244.73,140.45,-16.27,86857,31936,0,227.0672441827794,522,0,0,1,1
1670699050041.00,0.35293498078793023,-0.303415293,0.8379143605672971,-259.17,145.16,-1.45,86857,31936,0,227.0672441827794,522,0,0,1,1
1670699050050.00,0.2826345470101083,-0.033358879,0.4477536150317425,-257.5,162.05,39.43,87116,31936,0,227.7460820076404,523,0,0,1,1
1670699050057.00,0.2523480460675882,0.12670383553360595,0.16757940475867486,-249.85,164.83,49.52,87116,31936,0,227.7460820076404,524,0,0,0,1
1670699050066.00,-0.167923735,1.146774185,-0.882610469,-242.37,136.81,67.02,88189,31936,0,230.5584101392073,525,0,0,0,1
1670699050073.00,-0.288180062,1.5468533418591621,-1.222818178,-252.98,70.77,76.25,88189,31936,0,230.5584101392073,526,0,0,0,1
1670699050082.00,-0.568420161,2.726942072397708,-1.143045639,-280.07,47.28,45.17,94376,31936,0,246.77450906745003,527,0,0,0,1
1670699050088.00,0.10135684642461482,3.347040439,0.27670560706116715,-248.02,110.65,2.03,94376,31936,0,246.77450906745003,528,0,0,0,1
1670699050098.00,1.771151903123078,2.1571475244182867,0.5464342904204178,-66.79,170.48,-45.61,96359,31936,0,251.9719430701501,529,0,0,0,1
1670699050105.00,2.0509657733507476,0.7472613671463425,0.4861391792492232,2.96,49.22,-108.64,96359,31936,0,251.9719430701501,530,0,0,0,0
1670699050114.00,1.6907987133339777,-0.032620794,0.035818911,139.72,-196.31,-141.04,95152,31936,0,248.8084015465702,531,1,0,0,0
1670699050121.00,1.6906502822804608,-0.172502121,-0.824527993,181.36,-279.71,-134.69,95152,31936,0,248.8084015465702,532,1,0,0,0
1670699050130.00,0.6205193534204554,0.1776141097671648,-3.124902921,192.02,-286.72,-112.84,97281,31936,0,254.38850088683668,533,1,0,0,0
1670699050137.00,-0.149595731,0.4777246061596627,-2.835306769,150.6,-286.72,-94.92,97281,31936,0,254.38850088683668,534,1,0,0,0
1670699050146.00,-1.279696886,0.6278260025698246,-2.045739551,125.54,-262.51,-70.28,100720,31936,0,263.4021042833498,535,1,0,0,0
1670699050152.00,-0.579785965,0.057914785,-2.646200253,129.19,-197.79,-48.06,100720,31936,0,263.4021042833498,536,1,0,0,0
1670699050162.00,0.9301354027022919,-1.112012686,-2.676686865,133.99,-202.26,-45.94,106403,31936,0,278.2972214983496,537,1,0,0,0
1670699050169.00,2.370065654937744,-1.851959974,-0.857196417,177.68,-252.57,-26.7,106403,31936,0,278.2972214983496,538,1,0,0,0
1670699050178.00,0.5500029297531674,-2.631930248,1.7722748170414198,196.66,-286.48,-46.99,112594,31936,0,294.5238044084434,539,1,1,0,0
1670699050185.00,-1.510055085,-2.971925954,1.8117308046045792,209.5,-286.72,-5.87,112594,31936,0,294.5238044084434,540,1,1,0,0
1670699050194.00,-4.13011079,-1.831948589,1.6111751775612444,236.41,-47.24,35.55,119641,31936,0,312.99395943468016,541,0,1,0,0
1670699050201.00,-2.900165989,-1.191998684,1.2106109507431952,235.85,76.54,-33.86,119641,31936,0,312.99395943468016,542,0,1,0,0
1670699050210.00,0.1697785535871338,0.13792398066423958,-0.579959433,225.87,271.29,-89.62,110080,31936,0,287.93462181500524,543,0,1,0,0
1670699050217.00,1.859722894,1.3778200137022556,1.5694660991766405,80.43,258.18,-90.36,110080,31936,0,287.93462181500524,543,0,1,0,0
1670699050226.00,1.6796672295352753,0.8176900088114754,1.328889358644206,59.86,222.71,-82.07,104837,31936,0,274.1927426036303,545,0,1,0,0
1670699050233.00,-0.040388635,-0.282465705,-0.741688166,161.91,81.15,-65.05,104837,31936,0,274.1927426036303,545,0,1,0,0
1670699050242.00,-1.590445289,-0.312647025,-1.982265204,140.73,24.6,-17.5,106976,31936,0,279.7990518985246,546,0,1,0,0
1670699050249.00,-1.990503325,-0.302853886,-0.892840324,113.65,13.82,-5.2,106976,31936,0,279.7990518985246,547,0,1,0,0
1670699050258.00,-1.860562887,-1.443086099,2.5665882670374582,95.93,211.29,51.28,102997,31936,0,269.3701109521083,548,0,1,0,0
1670699050265.00,-0.210623473,-2.043343197,1.9860224062689293,122.61,126.81,97.46,102997,31936,0,269.3701109521083,549,0,0,0,0
1670699050274.00,1.139315930811234,-2.253624202,1.4754634508027629,30.9,-37.48,96.75,97536,31936,0,255.0568547298465,550,0,0,0,0
1670699050281.00,0.10925648586734513,-1.243927418,1.994912029621914,-72.11,-63.66,81.1,97536,31936,0,255.0568547298465,551,0,0,0,0
1670699050290.00,0.11919923825854964,-0.164250449,1.7443680462101674,-60.55,-75.39,135.82,93269,31936,0,243.87306709014848,552,0,0,0,0
1670699050297.00,0.9191450741419672,0.745409566,0.4238307241666118,4.24,-86.09,176.12,93269,31936,0,243.87306709014848,553,0,0,0,0
1670699050306.00,0.6790947138800905,1.0450555889204278,-0.416701242,10.82,-146.12,149.2,91202,31936,0,238.4554694685746,554,0,0,0,0
1670699050313.00,0.089048656,1.1846903847494834,-0.597229387,-11,-190.11,124.96,91202,31936,0,238.4554694685746,555,0,0,0,0
1670699050322.00,-0.960992783,1.094316346485673,-1.487755175,-68.02,-206.08,109.48,91147,31936,0,238.31131471812148,556,0,0,0,0
1670699050328.00,-0.821029274,0.9739354333907144,-1.468279763,-63.3,-146.17,111.21,91147,31936,0,238.31131471812148,557,0,0,1,0
1670699050338.00,-0.521060274,0.5735491852270367,-0.698803851,-57.23,34.71,91.04,90764,31936,0,237.3074734558753,558,0,0,1,0
1670699050344.00,-0.50108496,0.25315879374353945,-0.559327673,-58.16,165.1,56.13,90764,31936,0,237.3074734558753,559,0,0,1,0
1670699050354.00,-0.491102263,-0.117234782,0.020148880599187013,-120.21,213.64,26.79,91741,31936,0,239.868186,560,0,0,1,0
1670699050361.00,-0.071110915,-0.187630686,0.8196260861685338,-171.62,202.85,23.68,91741,31936,0,239.868186,561,0,0,1,0
1670699050370.00,0.2488904893434386,-0.138028061,0.9591041857343816,-176.76,198.52,4.87,90982,31936,0,237.87885046676217,562,0,0,1,1
1670699050377.00,0.5989033865304026,-0.508425993,0.7685831953472765,-180.43,203.58,-1.65,90982,31936,0,237.87885046676217,563,0,0,1,1
1670699050386.00,0.7189291186207296,-0.768823451,0.6180628131554408,-238.88,163.34,17.25,90675,31936,0,237.0742048596876,564,0,0,1,1
1670699050393.00,0.7489688242571548,-0.679219221,0.5175424315848935,-252.95,150.29,33.48,90675,31936,0,237.0742048596876,565,0,0,1,1
1670699050402.00,0.6890233766254993,0.3303881440713933,-0.022978801,-253.27,149.46,54.27,91334,31936,0,238.80144086966203,566,0,0,1,1
1670699050408.00,0.7590933624873886,0.6600002304125229,-0.153501889,-259.11,134.51,65.14,91334,31936,0,238.80144086966203,566,0,0,1,1
1670699050418.00,0.7491790784170699,1.479618559759852,-0.344027875,-266.16,69.17,58.18,94211,31936,0,246.34204481609072,568,0,0,0,1
1670699050425.00,-0.370719446,2.249244335241231,-0.234557751,-253.06,-8.15,40.51,94211,31936,0,246.34204481609072,568,0,0,0,1
1670699050434.00,-1.340602314,2.428878179,-0.27509241,-217.26,-28.82,37.8,102160,31936,0,267.1763377497583,569,0,0,0,1
1670699050441.00,-0.750469517,2.0185199217697187,0.19436734993376337,-203.63,16.35,20.48,102160,31936,0,267.1763377497583,570,0,0,0,1
1670699050450.00,0.9896792239595449,0.9681685410431901,0.4438207744276625,-77.96,187.03,-9.56,113807,31936,0,297.7030719048001,571,0,0,0,1
1670699050457.00,1.569844305,0.2878223119862077,0.4932670560015595,-19.18,158.93,-22.72,113807,31936,0,297.7030719048001,572,0,0,0,1
1670699050466.00,1.3200258938204956,-0.692520909,0.5427052456784823,73.23,-16.66,-57.16,123754,31936,0,323.7741137731095,573,0,0,0,0
1670699050473.00,0.9402236863826658,-0.512863374,0.122134214,122.85,-180.49,-86.25,123754,31936,0,323.7741137731095,574,0,0,0,0
1670699050482.00,0.23043690135900177,0.19679276319726702,-1.488447284,122.82,-249.31,-74.75,124735,31936,0,326.3453103221003,575,1,0,0,0
1670699050489.00,-0.949335554,0.8664454444111971,-2.349040372,118.9,-175.45,-63.17,124735,31936,0,326.3453103221003,576,1,0,0,0
1670699050498.00,-0.439094827,0.6260925495705887,-1.839645696,130.9,-80.39,-65.63,123740,31936,0,323.7374198366305,577,1,0,0,0
1670699050504.00,1.4111580380706097,-0.134268237,-2.120263168,139.06,-49.86,-71.92,123740,31936,0,323.7374198366305,578,1,0,0,0
1670699050514.00,2.481421949379764,-0.794639384,-2.450891883,140.99,-196.14,-48.94,127147,31936,0,332.6671513783346,579,1,0,0,0
1670699050521.00,2.5716953598411343,-0.93502332,-2.321530071,147.9,-266.22,-44.32,127147,31936,0,332.6671513783346,580,1,0,0,0
1670699050530.00,-1.398024001,-0.96542224,-1.572175068,159.77,-286.72,-87.32,129672,31936,0,339.28516492186344,581,1,0,0,0
1670699050537.00,-2.857738859,-1.165837991,-0.012823408,156.5,-286.07,-65.73,129672,31936,0,339.28516492186344,582,1,0,0,0
1670699050546.00,-2.6574517,-1.986271998,1.4665288654216393,213.42,-141.06,11.55,132871,31936,0,347.66972940730847,583,1,1,0,0
1670699050553.00,-0.927164217,-2.166725137,1.1258857547257335,243.15,-66.03,22.82,132871,31936,0,347.66972940730847,584,1,1,0,0
1670699050562.00,-0.646877278,-1.137197603,0.34525096024185076,227.85,50.57,-10.13,124584,31936,0,325.94954,585,0,1,0,0
1670699050569.00,0.843408769,0.23231106611363672,0.604627819,172.87,126.68,-44.97,124584,31936,0,325.94954,586,0,1,0,0
1670699050578.00,0.8236937267052937,0.8118017280138552,1.574019366906349,122.26,164.4,-111.54,111293,31936,0,291.11388931136185,587,0,1,0,0
1670699050584.00,0.8239772554881734,0.8312752698163943,0.9934283064959557,133.99,162.02,-106.02,111293,31936,0,291.11388931136185,587,0,1,0,0
1670699050594.00,0.4742587312920432,-0.02926762,-0.237143058,160.16,83.56,-73.44,103552,31936,0,270.82476343395325,589,0,1,0,0
1670699050601.00,-0.485462732,-0.249826453,0.3623072703226095,138.84,76.06,-61.64,103552,31936,0,270.82476343395325,589,0,1,0,0
1670699050610.00,-1.285188113,-0.510400806,-0.768218829,142.68,-55.11,-30.41,101495,31936,0,265.4333757670072,591,0,1,0,0
1670699050617.00,-2.814918189,-1.400990146,1.6912804997196933,74.41,-2.13,-24.6,101495,31936,0,265.4333757670072,591,0,1,0,0
1670699050626.00,-1.79465318,-1.911593653,1.9508069822067755,92.83,57.53,23.09,98344,31936,0,257.17461906377576,592,0,1,0,0
1670699050632.00,0.095607429,-2.082209996,1.740361919090675,-0.15,-46.1,30.36,98344,31936,0,257.17461906377576,593,0,0,0,0
1670699050642.00,-0.034135271,-1.21283717,2.2799459393764536,-73.73,18.59,40.56,91541,31936,0,239.34398693045824,594,0,0,0,0
1670699050649.00,0.016120047,-0.833472489,2.189558892731552,-79.71,8.18,84.16,91541,31936,0,239.34398693045824,595,0,0,0,0
1670699050658.00,0.7863747297821717,0.37588724508583815,0.9391998234627417,-12.14,-0.22,176.93,89242,31936,0,233.3183183615185,596,0,0,0,0
1670699050664.00,0.9166300209194147,0.7752454679534233,0.35886707467882795,6.96,-22.23,179.58,89242,31936,0,233.3183183615185,597,0,0,0,0
1670699050674.00,0.4668869429002709,1.2346055662848674,-0.261441456,10.62,-95.58,156.77,87435,31936,0,228.5821795602684,598,0,0,1,0
1670699050681.00,-0.462853733,1.063970643894189,-0.501728033,-30.65,-180.31,124,87435,31936,0,228.5821795602684,599,0,0,1,0
1670699050690.00,-0.79259135,1.0033434019388774,-1.091994866,-31.75,-123.67,96.54,87228,31936,0,228.03963349947216,600,0,0,1,0
1670699050697.00,-0.202325169,0.5827261252052262,-1.282243929,-12.43,-13.9,84.83,87228,31936,0,228.03963349947216,601,0,0,1,0
1670699050706.00,-0.442054265,0.072120751,-0.912476827,-67.03,101.59,51.53,87231,31936,0,228.0474964858605,602,0,0,1,0
1670699050713.00,-0.641777531,-0.018471002,-0.232694754,-112.52,140.78,28.64,87231,31936,0,228.0474964858605,603,0,0,1,0
1670699050722.00,-0.271493687,-0.109047508,0.8471013896371901,-233.6,222.88,10.33,86928,31936,0,227.25333486063707,604,0,0,1,1
1670699050729.00,-0.001201276,-0.079607144,1.066910749696342,-241.63,227.7,4.82,86928,31936,0,227.25333486063707,605,0,0,1,1
1670699050738.00,0.18910126739069832,-0.330148256,0.7367322670958414,-240.35,222.76,-4.75,86877,31936,0,227.1196640920351,606,0,0,1,1
1670699050744.00,0.31941552497709047,-0.630669118,0.7465645519874897,-271.75,229.59,11.21,86877,31936,0,227.1196640920351,607,0,0,1,1
1670699050754.00,0.36974301690597694,-0.301167874,0.956405878,-286.72,233.23,45.79,87362,31936,0,228.3908468914852,608,0,0,1,1
1670699050761.00,0.5100851467848162,0.19835748802888037,0.7162541950809325,-285.99,227.12,77.22,87362,31936,0,228.3908468914852,609,0,0,0,1
1670699050770.00,0.8904431532048065,0.7279090570656735,-0.093892854,-265.81,188.35,99.1,88249,31936,0,230.7156698669743,610,0,0,0,1
1670699050776.00,1.100818037,1.357488832041473,-0.664037821,-261.72,156.46,104.4,88249,31936,0,230.7156698669743,610,0,0,0,1
1670699050786.00,0.5012104843976901,1.9370985069371807,-0.734183253,-251.34,29.58,49.46,89946,31936,0,235.16349916731824,612,0,0,0,1
1670699050793.00,0.031620863,2.246739245715158,-0.684331518,-253.29,-12.49,31.44,89946,31936,0,235.16349916731824,612,0,0,0,1
1670699050802.00,-0.057950668,2.8864114727127292,-0.24448473,-240.84,-8.26,6.58,92003,31936,0,240.55488683426432,614,0,0,0,1
1670699050809.00,0.3924959660811481,2.6661146944503247,-0.24464478,-149.13,82.88,-29.33,92003,31936,0,240.55488683426432,614,0,0,0,1
1670699050818.00,1.6129607511188173,1.8558474007427308,-0.004813412,-29.05,65.74,-51.06,92716,31936,0,242.4236565992291,615,0,0,0,0
1670699050824.00,1.5034434222765214,0.7656071341565278,-0.014992292,105.63,-121.27,-81.86,92716,31936,0,242.4236565992291,616,1,0,0,0
1670699050834.00,1.4339432495234303,0.1353907417818067,-0.805183031,192.4,-283.9,-97.02,93471,31936,0,244.4025081736308,617,1,0,0,0
1670699050841.00,0.6044589489863075,0.085194689,-2.345387093,226.84,-286.72,-102.93,93471,31936,0,244.4025081736308,618,1,0,0,0
1670699050850.00,-0.395011218,-0.084984709,-2.515605524,214.84,-284.54,-68.37,96594,31936,0,252.58787700390428,619,1,0,0,0
1670699050856.00,-0.734469205,-0.125151169,-2.255838631,195.66,-250.15,-61.53,96594,31936,0,252.58787700390428,620,1,0,0,0
1670699050866.00,-0.32391692,-0.195308391,-2.376085805,178.72,-135.12,-75.24,99303,31936,0,259.6881537125853,621,1,0,0,0
1670699050873.00,0.47664388547363534,-0.465460019,-2.766345485,161.05,-134.13,-69.92,99303,31936,0,259.6881537125853,622,1,0,0,0
1670699050882.00,1.7072114978333397,-0.685609588,-2.476615129,139.62,-208.71,-24.07,100732,31936,0,263.4335562289032,623,1,0,0,0
1670699050889.00,2.027783964052916,-0.925760451,0.10310875789889151,143.43,-283.97,-20.98,100732,31936,0,263.4335562289032,624,1,0,0,0
1670699050898.00,-1.151641138,-2.095915663,2.3728303065133804,230.24,-286.72,-1.46,106251,31936,0,277.89883018800646,625,1,1,0,0
1670699050905.00,-2.881066529,-3.386077763,-0.057446287,286.68,-270.92,94.44,106251,31936,0,277.89883018800646,626,1,1,0,0
1670699050914.00,-2.450494654,-2.766248465,1.412282839980864,237.68,-48.49,16.34,109034,31936,0,285.1930605609335,627,0,1,0,0
1670699050921.00,-1.729927175,-1.746428421,1.2120211490358659,204.13,69.42,-34.38,109034,31936,0,285.1930605609335,628,0,1,0,0
1670699050930.00,0.8206350810509768,1.0033826685229226,1.4317716797798905,163.8,227.21,-83.8,102463,31936,0,267.9704993749818,629,0,1,0,0
1670699050936.00,1.061191754613074,1.3231855923121012,1.8515369620856335,59.57,250.99,-65.07,102463,31936,0,267.9704993749818,630,0,1,0,0
1670699050946.00,1.0517424643643245,1.0129810749290202,0.6713189539445276,79.42,181.67,-28.28,99020,31936,0,258.94641199661754,631,0,1,0,0
1670699050953.00,0.24228652065237188,0.3627694762085056,-0.438880893,108.73,58.93,-3.35,99020,31936,0,258.94641199661754,632,0,1,0,0
1670699050962.00,-0.757177055,-0.127449186,-0.969061379,126.88,-50.56,6.29,98777,31936,0,258.3095100991611,633,0,1,0,0
1670699050969.00,-2.846649263,-1.057675042,1.1407787138276242,122.35,94.47,18.21,98777,31936,0,258.3095100991611,634,0,1,0,0
1670699050978.00,-1.43613072,-1.857908114,2.170640610612336,148.81,113.36,75.57,95792,31936,0,250.48583864275176,635,0,0,0,0
1670699050985.00,-0.035621403,-2.348148017,2.4505251938825268,83.2,9.84,88.87,95792,31936,0,250.48583864275176,636,0,0,0,0
1670699050994.00,-0.005120768,-1.818393701,1.9104326399672327,-35.96,-40.48,89.14,91049,31936,0,238.05445716276867,637,0,0,0,0
1670699051002.00,-0.024628051,-0.308643364,1.080362295909992,-26.84,-12.32,169.69,89292,31936,0,233.44936813465773,638,0,0,0,0
1670699051009.00,0.3458575474865588,0.15110537871106933,0.5803128019710251,-13.94,-14.2,197.5,89292,31936,0,233.44936813465773,638,0,0,0,0
1670699051018.00,0.38633678721975595,0.9108551568533878,-0.469717661,-14.6,-64.65,200.24,88167,31936,0,230.50074823902605,639,0,0,0,0
1670699051025.00,-0.38318965,1.3406085310055849,-0.529731095,-74.17,-147.51,151.12,88167,31936,0,230.50074823902605,640,0,0,0,0
1670699051034.00,-0.472721125,1.5003677465770622,-0.779729443,-102.33,-147.94,126.81,87750,31936,0,229.40779313104525,641,0,0,0,0
1670699051041.00,-0.112256937,1.220134573588529,-1.059714434,-52.71,-38.95,119.12,87750,31936,0,229.40779313104525,642,0,0,0,0
1670699051050.00,0.13820372043158013,0.7499102606250811,-1.189687479,-33.43,71.28,92.22,87277,31936,0,228.16806227714855,643,0,0,1,0
1670699051057.00,-0.021338285,0.10969561299739497,-0.949649596,-51.82,110.33,77.42,87277,31936,0,228.16806227714855,644,0,0,1,0
1670699051066.00,-0.210882075,-0.370508837,-0.209601402,-151.34,164.38,32.27,88980,31936,0,232.6316175502692,645,0,0,1,0
1670699051073.00,-0.210426756,-0.420702632,0.17045679054027185,-170.91,168.69,25.44,88980,31936,0,232.6316175502692,646,0,0,1,0
1670699051082.00,0.11002861727349039,-0.360885236,0.8405247876355179,-180.65,166.53,20.9,91127,31936,0,238.2588948088658,647,0,0,1,1
1670699051089.00,0.19048502600357492,-0.351055973,0.7606023111145853,-178.48,171.46,14.5,91127,31936,0,238.2588948088658,648,0,0,1,1
1670699051098.00,0.35094343361980146,-0.461214014,0.6606888529465778,-204.07,171.18,19.56,92080,31936,0,240.75670348489868,649,0,0,1,1
1670699051105.00,0.7214047163262112,-0.501358374,0.6207836217669837,-240.21,141.3,44.56,92080,31936,0,240.75670348489868,650,0,0,1,1
1670699051114.00,0.9418695805937439,-0.201487897,0.6108855533189309,-249.96,121.69,59.93,95765,31936,0,250.41507176525656,651,0,0,1,1
1670699051121.00,1.1223384632081008,0.37839870902528555,0.4109933343598773,-243.35,93.68,74.22,95765,31936,0,250.41507176525656,652,0,0,0,1
1670699051130.00,1.132811439048245,1.0583027680825012,0.26110543429750555,-208.59,-14.76,68.73,100256,31936,0,262.1859623886182,653,0,0,0,1
1670699051137.00,0.7732881707658935,1.4682254355749498,0.17122015428271514,-197.91,-91.87,55.56,100256,31936,0,262.1859623886182,654,0,0,0,1
1670699051146.00,-1.476232024,1.718167486965589,-0.108664314,-182.02,-190.61,28.17,105777,31936,0,276.6564783,655,0,0,0,1
1670699051153.00,-1.675749897,1.6981291491993356,-0.318549823,-163.56,-142.56,21.91,105777,31936,0,276.6564783,656,0,0,0,1
1670699051162.00,-1.605265873,1.7081100071937254,-0.548438185,-130.88,56.21,5.56,114448,31936,0,299.3831299964444,657,0,0,0,1
1670699051169.00,0.1452201526912949,1.6181089729262454,0.40166888403723217,-57.73,167.54,12.24,114448,31936,0,299.3831299964444,658,0,0,0,1
1670699051178.00,1.2257086886967805,0.3081243213586372,0.10176974437068928,66.47,67.7,-18.49,122453,31936,0,320.3641986760279,659,0,0,0,0
1670699051185.00,0.9562002755815663,-0.271846151,-0.688137235,142.68,-87.71,-71.51,122453,31936,0,320.3641986760279,659,0,0,0,0
1670699051194.00,1.1666951719450407,0.068195126,-1.778053615,148.34,-150.32,-67.17,125836,31936,0,329.2310263266252,661,1,0,0,0
1670699051201.00,1.5071932133898303,0.2282456818107971,-2.127980641,148.85,-143.4,-57.34,125836,31936,0,329.2310263266252,661,1,0,0,0
1670699051210.00,1.1776937552072033,0.6583030147505423,-2.57791895,145.08,-194.93,-76.21,123187,31936,0,322.28800934571115,662,1,0,0,0
1670699051217.00,0.7081956517260245,0.4383645124110139,-2.297868354,132,-249.14,-80.82,123187,31936,0,322.28800934571115,663,1,0,0,0
1670699051226.00,-0.35130266,-0.401572594,-1.947827741,107.72,-267.51,-97.02,123236,31936,0,322.41643812338754,664,1,0,0,0
1670699051233.00,-1.170802941,-0.811511151,-1.897795106,107.04,-220.76,-77.32,123236,31936,0,322.41643812338754,665,1,0,0,0
1670699051242.00,-1.400306846,-1.151453894,-1.487767631,114.45,-157.52,-63.6,126297,31936,0,330.43930523496846,666,1,0,0,0
1670699051249.00,-1.069815673,-1.74140325,-0.407741805,177.98,-73.49,-29.05,126297,31936,0,330.43930523496846,667,1,0,0,0
1670699051258.00,-0.279330269,-1.821361163,1.8122863398885198,230.67,-19.65,65.05,128146,31936,0,335.2855258456555,668,1,0,0,0
1670699051265.00,0.031148874183222954,-1.811328957,1.372320813857443,260.31,-75.96,86.76,128146,31936,0,335.2855258456555,669,1,1,0,0
1670699051274.00,0.5316214310369257,-0.951307274,0.5023652832209026,230.54,-83.67,39.83,116337,31936,0,304.3341904256428,670,1,1,0,0
1670699051281.00,0.2020870688529883,-0.411296155,0.9424229650064158,175.28,-29.11,1.86,116337,31936,0,304.3341904256428,671,0,1,0,0
1670699051290.00,-0.357454632,0.37870475941259224,1.4724966881954469,123.12,74.94,-69.24,106348,31936,0,278.15306674789645,672,0,1,0,0
1670699051297.00,0.12299585613681698,0.3086959834835837,0.3925888996859014,187.76,120.01,-88.41,106348,31936,0,278.15306674789645,673,0,1,0,0
1670699051306.00,0.7034380530475164,0.49867799726927087,0.22270167473784586,161.32,134.02,-73.78,98127,31936,0,256.6058630483517,674,0,1,0,0
1670699051313.00,0.043871418,0.2586511506931237,0.5628368231891222,149.56,190.1,-49.06,98127,31936,0,256.6058630483517,675,0,1,0,0
1670699051322.00,0.5242952853366831,0.5886156383205923,-1.337003977,195.17,87.03,-35.19,94406,31936,0,246.85313893133355,676,0,1,0,0
1670699051329.00,-0.395291134,-0.501428488,1.5831809291914214,161.74,-70.72,-47.9,94406,31936,0,246.85313893133355,677,0,1,0,0
1670699051338.00,-3.694888598,-2.431481191,1.7333931348795122,28.58,-21.78,-23.18,94225,31936,0,246.3787387525697,678,0,1,0,0
1670699051345.00,-2.194497433,-3.211542102,1.9236338940882411,53.93,23.29,-6.34,94225,31936,0,246.3787387525697,679,0,0,0,0
1670699051354.00,-0.624117155,-3.31161005,1.8139038398240626,-30.78,76.82,-2.73,89612,31936,0,234.2880866827485,680,0,0,0,0
1670699051361.00,-0.643746493,-1.731682753,1.3542028900474343,-47.61,156.7,74.76,89612,31936,0,234.2880866827485,681,0,0,0,0
1670699051370.00,0.10661629029726294,-0.241756877,1.174530292,-90.94,126.81,188.41,87569,31936,0,228.93339295228145,682,0,0,0,0
1670699051377.00,0.836973113,1.118171580647958,1.2248847124339242,-123.98,89.78,230.45,87569,31936,0,228.93339295228145,683,0,0,0,0
1670699051386.00,1.2473258444066222,1.6981067599720114,0.6452643254095423,-65.99,29.66,229.85,86284,31936,0,225.5654137826044,684,0,0,0,0
1670699051393.00,0.8676760851574561,1.5580524919222152,0.1456669015637107,-26.9,-22.29,214.32,86284,31936,0,225.5654137826044,684,0,0,0,0
1670699051402.00,0.14802507463832384,1.1080120650046534,-0.783910031,15.34,-109.29,103.2,85997,31936,0,224.81318808478545,686,0,0,1,0
1670699051409.00,-0.041626237,1.087988199573328,-1.35346895,9.02,-84.81,79.42,85997,31936,0,224.81318808478545,686,0,0,1,0
1670699051418.00,-0.421277025,0.827983123,-1.653012068,-19.9,-22.47,60.19,85898,31936,0,224.55370953396985,687,0,0,1,0
1670699051425.00,-0.600926438,0.6179986530938294,-1.092541131,-90.46,69.51,46.46,85898,31936,0,224.55370953396985,688,0,0,1,0
1670699051434.00,-0.440573489,0.27803627795807734,0.097942626,-160.17,160.54,20.97,85937,31936,0,224.6559283570184,689,0,0,1,0
1670699051441.00,0.3597829748181377,-0.211902738,0.9184382953736084,-192.35,200.26,-8.25,85937,31936,0,224.6559283570184,690,0,0,1,0
1670699051450.00,0.7401441908198758,-0.381817225,0.8989449927333765,-185.5,192.82,-48.54,85840,31936,0,224.4016917971284,691,0,0,1,1
1670699051457.00,0.7405113075323747,-0.391705975,0.6394616071518424,-184.33,171.03,-42.32,85840,31936,0,224.4016917971284,692,0,0,1,1
1670699051466.00,0.6708852476260581,-0.581567656,0.5899867208088578,-233.24,104.95,-6.6,86327,31936,0,225.6781165875041,693,0,0,1,1
1670699051473.00,0.621266658,-0.501400765,0.6405186327565664,-250.92,97.86,12.02,86327,31936,0,225.6781165875041,694,0,0,1,1
1670699051482.00,0.39165592,0.068796389,0.6410553876428797,-268.8,95.66,39.48,86606,31936,0,226.4093743216207,695,0,0,1,1
1670699051489.00,0.3020531913154866,0.3690256198153254,0.4615947839798696,-252.05,77.69,53.73,86606,31936,0,226.4093743216207,696,0,0,0,1
1670699051498.00,-0.097541536,1.0292887345112665,-0.047865599,-226.52,34.55,67.45,86527,31936,0,226.2023156800608,697,0,0,0,1
1670699051505.00,-0.637128344,1.6695873463222843,-0.597328312,-231.48,-28.67,81.24,86527,31936,0,226.2023156800608,698,0,0,0,1
1670699051514.00,-1.016707251,2.4099226490917887,-0.80679588,-270.9,-43.98,52.77,87700,31936,0,229.27674335790607,699,0,0,0,1
1670699051521.00,-0.176278072,3.2502951534103497,-0.496270653,-277.2,43.26,15.31,87700,31936,0,229.27674335790607,700,0,0,0,1
1670699051530.00,1.684159570916252,3.140704414364814,0.22424524510692012,-139.34,133.95,-38.26,92999,31936,0,243.16539831519688,701,0,0,0,1
1670699051537.00,2.044605981936364,2.3011488478167714,0.23474983048784415,-31.59,86.64,-82.71,92999,31936,0,243.16539831519688,702,0,0,0,0
1670699051546.00,1.6850610090468632,0.22162578012351028,-0.024758866,122.69,-246.91,-152.43,91528,31936,0,239.30991398944207,703,1,0,0,0
1670699051553.00,1.425523827223155,0.072131775,-1.064282831,187.72,-286.48,-126.82,91528,31936,0,239.30991398944207,704,1,0,0,0
1670699051562.00,0.505992958,0.10266304512330698,-3.063823892,225.57,-286.72,-77.18,89423,31936,0,233.7927185402824,705,1,0,0,0
1670699051569.00,-0.763533539,0.7532156841372244,-2.963383343,162.34,-282.41,-67.86,89423,31936,0,233.7927185402824,706,1,0,0,0
1670699051578.00,-1.733057748,1.1937856524775416,-1.462961579,106.45,-219.32,-7.9,92052,31936,0,240.6833156119407,707,1,0,0,0
1670699051585.00,-1.122581522,0.36436865767822835,-2.322558016,153.48,-195.2,22.75,92052,31936,0,240.6833156119407,707,1,0,0,0
1670699051594.00,0.007893721,-0.455039874,-3.012171172,178.14,-161.09,-5.15,97269,31936,0,254.35704894128327,709,1,0,0,0
1670699051601.00,0.45836690949053477,-0.824444643,-2.471798637,185.76,-136.49,-16.58,97269,31936,0,254.35704894128327,709,1,0,0,0
1670699051610.00,0.30883707351557466,-2.473850204,1.708562924658954,270.37,-165.34,-35.15,100920,31936,0,263.92630337590657,710,1,1,0,0
1670699051617.00,-0.820696809,-2.96326063,2.108917352,276.75,-220.65,-8.55,100920,31936,0,263.92630337590657,711,1,1,0,0
1670699051626.00,-2.530235707,-2.892679164,1.1892683119765162,286.32,-154.95,107.65,103625,31936,0,271.01609610273647,712,1,1,0,0
1670699051633.00,-2.009780208,-2.36210799,0.7396189073666468,284.99,8.07,34.19,103625,31936,0,271.01609610273647,713,0,1,0,0
1670699051642.00,0.1206697543396551,-0.761548247,-0.390028252,243.14,210.09,-100.48,101722,31936,0,266.02834173705907,714,0,1,0,0
1670699051649.00,1.0611147783174466,1.0089996927927527,2.730329131043418,51.63,286.68,-110.57,101722,31936,0,266.02834173705907,715,0,1,0,0
1670699051658.00,1.4515555670891478,1.1395357496404557,1.260693006,70.13,236.37,-66.62,97303,31936,0,254.44616278701795,716,0,1,0,0
1670699051665.00,0.9819925335734057,0.5900596994845098,0.3310648005439634,122.12,153.93,-61.63,97303,31936,0,254.44616278701795,717,0,1,0,0
1670699051674.00,-0.617574318,0.18057100263446807,-1.7685545,161.42,5.05,-1.23,96632,31936,0,252.68747483149005,718,0,1,0,0
1670699051681.00,-1.857145194,-0.098931123,-0.908163952,157.29,-9.53,3.52,96632,31936,0,252.68747483149005,719,0,1,0,0
1670699051690.00,-3.126720078,-0.438447554,1.3822376416604403,150.18,207.51,25.08,93827,31936,0,245.3355825583818,720,0,1,0,0
1670699051697.00,-0.136298325,-2.137979087,2.4626515854096294,120.68,134.32,81.73,93827,31936,0,245.3355825583818,721,0,0,0,0
1670699051706.00,0.8941213708436159,-2.95752616,1.8430788185746316,-8.39,-6.77,82.82,91326,31936,0,238.78047290595973,722,0,0,0,0
1670699051713.00,0.12454060177426995,-1.957088502,1.7035195705870465,-27.91,25.24,107.78,91326,31936,0,238.78047290595973,723,0,0,0,0
1670699051722.00,0.004960905,-0.656664964,1.053973318644152,-17.69,7.89,163.97,89755,31936,0,234.66288903392655,724,0,0,0,0
1670699051729.00,0.43538370236774293,0.543746298,0.21443892920355165,-18.55,1.32,190.48,89755,31936,0,234.66288903392655,725,0,0,0,0
1670699051738.00,0.7658103170987886,1.3341474063515315,-0.165085122,-29.53,-59.88,197.08,88534,31936,0,231.46265357386767,726,0,0,0,0
1670699051745.00,0.6062419125455609,1.6045403439016102,-0.12460052,-35.1,-98.73,168.81,88534,31936,0,231.46265357386767,727,0,0,0,0
1670699051754.00,0.2066794281528639,1.3849266610054425,-0.974108936,-49.17,-173.72,107.81,89063,31936,0,232.84916017368025,728,0,0,1,0
1670699051761.00,0.057123603332885145,1.1953073533574246,-1.233611882,-17.5,-134.94,70.8,89063,31936,0,232.84916017368025,729,0,0,1,0
1670699051770.00,-0.382424929,0.7856828771873622,-1.233110556,-15.08,-62.81,61.06,90548,31936,0,236.74133843591403,730,0,0,1,0
1670699051777.00,-1.031965517,0.3260532451350673,-0.582605732,-52.4,67.04,39.87,90548,31936,0,236.74133843591403,730,0,0,1,0
1670699051786.00,-0.511497346,-0.283581827,0.26790219909270846,-81.29,176.96,17.6,92293,31936,0,241.3149755184716,732,0,0,1,0
1670699051793.00,0.40898063091995057,-1.033222726,0.9784130350677261,-97.31,196.49,6.12,92293,31936,0,241.3149755184716,732,0,0,1,0
1670699051802.00,1.0494695816523465,-1.142869718,1.0789264992656846,-109.9,180.07,-56.98,97422,31936,0,254.7580612470892,733,0,0,1,0
1670699051809.00,1.2699705540605928,-1.062522752,0.8294420276654828,-119.46,171.07,-67.46,97422,31936,0,254.7580612470892,734,0,0,1,1
1670699051818.00,1.470484247341557,-0.802181371,0.5899586930199738,-192.1,131.57,-49,99217,31936,0,259.4627481027859,735,0,0,1,1
1670699051825.00,1.421010873584491,-0.721844721,0.5704752388209267,-251.56,57.24,-2.56,99217,31936,0,259.4627481027859,736,0,0,1,1
1670699051834.00,0.921550107,-0.101511619,0.4309901429445548,-252.55,5.66,25.3,103114,31936,0,269.6767674,737,0,0,1,1
1670699051841.00,0.21210113426044924,0.6088193282537084,0.3215016673296346,-240.96,-32.52,38.19,103114,31936,0,269.6767674,738,0,0,0,1
1670699051850.00,-0.447337185,0.9991495348794015,0.1320079024185124,-228.11,-82.32,35.99,108605,31936,0,284.0686535073993,739,0,0,0,1
1670699051857.00,-1.396766072,1.7194802095703916,-0.297493172,-221.45,-103.79,36.04,108605,31936,0,284.0686535073993,740,0,0,0,1
1670699051866.00,-1.886186535,2.5398121184345803,0.10299638664313661,-264.56,-55.52,16.15,116740,31936,0,305.39045159714465,741,0,0,0,1
1670699051873.00,-1.515599113,2.340145343628605,0.29347452927863826,-234.54,-5.54,-2.5,116740,31936,0,305.39045159714465,742,0,0,0,1
1670699051882.00,0.6749962267874173,0.47047914554564435,0.5239391737133481,-131.97,109.74,-10.81,131565,31936,0,344.2467093329129,743,0,0,0,1
1670699051889.00,1.4055998617901766,0.23081208539712184,0.6343881233218627,-23.76,159.98,-14.69,131565,31936,0,344.2467093329129,744,0,0,0,1
1670699051898.00,1.1362120990182554,0.001142334,0.3748189985817193,45.86,29.45,-45.92,143800,31936,0,376.3145888200715,745,0,0,0,0
1670699051905.00,0.14683288845950002,-0.70853206,-0.594770757,110.18,-87.63,-69.9,143800,31936,0,376.3145888200715,746,1,0,0,0
1670699051914.00,-0.202538157,-0.608212996,-1.224383743,128.49,-111.55,-51.6,143617,31936,0,375.8349466503821,747,1,0,0,0
1670699051921.00,-0.621901558,0.42209777382275687,-2.124022347,130.36,-114.62,-28.68,143617,31936,0,375.8349466503821,748,1,0,0,0
1670699051930.00,-0.171257782,0.6123986051567489,-2.033688462,115.75,-91.98,-16.33,141518,31936,0,370.3334771739991,749,1,0,0,0
1670699051937.00,0.6193928131385944,0.5226877928271583,-2.073383271,107.36,-83.4,-21.55,141518,31936,0,370.3334771739991,750,1,0,0,0
1670699051946.00,1.9800498533286646,-0.247036533,-2.54310714,90.62,-271.77,-59.74,138247,31936,0,361.7602010152336,751,1,0,0,0
1670699051953.00,1.610712665662498,-0.646776349,-2.782859544,92.36,-286.72,-80.47,138247,31936,0,361.7602010152336,752,1,0,0,0
1670699051962.00,-0.978619913,-0.806533582,-1.822639001,109.07,-286.72,-113.43,133524,31936,0,349.3812394445062,753,1,0,0,0
1670699051969.00,-1.317949368,-1.42630993,-0.032443119,163.17,-207.64,-79.87,133524,31936,0,349.3812394445062,753,1,0,0,0
1670699051978.00,-0.087277118,-1.936106711,1.8677310599499424,193.58,-50.65,-22.22,127781,31936,0,334.3288625017394,755,1,1,0,0
1670699051985.00,0.2633956800827085,-2.325924682,0.7978865459127291,251.59,-13.99,4.14,127781,31936,0,334.3288625017394,755,1,1,0,0
1670699051994.00,-0.555931978,-1.375763881,0.30802603037314374,233.7,76.7,-26.97,116640,31936,0,305.1283520508663,756,0,1,0,0
1670699052002.00,1.1247389334154831,0.15437636461264087,0.038151868,142.22,60.54,-91.99,106195,31936,0,277.7520544420906,757,0,1,0,0
1670699052009.00,0.7354073707443394,1.134497168897766,1.578266198790252,100.68,97.89,-115.99,106195,31936,0,277.7520544420906,758,0,1,0,0
1670699052018.00,0.5860720812255567,1.1945996760055262,0.4183709373271307,133.66,123.43,-91.7,98218,31936,0,256.8443736,759,0,1,0,0
1670699052025.00,-0.003268454,0.8246847391938343,-0.101532288,164.74,69.49,-73.19,98218,31936,0,256.8443736,760,0,1,0,0
1670699052034.00,-1.032615918,0.6047528185488501,-1.411442024,145.3,29.39,-34.81,94429,31936,0,246.9134218269776,761,0,1,0,0
1670699052041.00,-1.931971917,-0.305195949,-0.421356734,156.56,-72.96,-43.42,94429,31936,0,246.9134218269776,762,0,1,0,0
1670699052050.00,-2.911337653,-1.405161565,1.3087253416891464,99.57,23.57,-32.92,92286,31936,0,241.2966285502321,763,0,1,0,0
1670699052057.00,-0.59071363,-3.01514385,2.7688059675432664,57.02,43.59,32.4,92286,31936,0,241.2966285502321,764,0,1,0,0
1670699052066.00,0.6099003446848332,-3.635142006,2.5988864490993566,-92.63,8.5,51.16,89327,31936,0,233.54110297585515,765,0,0,0,0
1670699052073.00,0.1605048278466014,-2.595154211,2.0689672464857582,-104.09,34.83,92.5,89327,31936,0,233.54110297585515,766,0,0,0,0
1670699052082.00,-0.088899598,-1.095177475,1.089047888442844,-15.52,43.71,134.73,86830,31936,0,226.99647730528423,767,0,0,0,0
1670699052089.00,0.061687585,-0.295207867,0.7491271384044367,-27.24,42.28,149.9,86830,31936,0,226.99647730528423,768,0,0,0,0
1670699052098.00,0.6622668580659011,1.1047590620073786,0.3192032428879764,-76.81,36.65,159.91,85927,31936,0,224.62971840239055,769,0,0,0,0
1670699052105.00,0.4628386167875289,1.3247278330050973,0.30927413648630336,-99.6,-20.97,148.59,85927,31936,0,224.62971840239055,770,0,0,0,0
1670699052114.00,0.053403108,1.464702691556901,0.079337571,-99.5,-98.88,109.37,85714,31936,0,224.07144636881765,771,0,0,1,0
1670699052121.00,0.003960435,1.4346873997430063,-0.870608784,-36.93,-68.29,82.03,85714,31936,0,224.07144636881765,772,0,0,1,0
1670699052130.00,0.4045106223182505,1.2046851675449197,-1.900567176,12.3,-8.44,74.82,85891,31936,0,224.5353625657304,773,0,0,1,0
1670699052137.00,0.3850536241157979,0.754698672,-1.310539515,-73.11,61.15,41.84,85891,31936,0,224.5353625657304,774,0,0,1,0
1670699052146.00,0.005589295,0.30473014752347904,-0.150527209,-183.65,102.82,-1.6,85740,31936,0,224.13959225085003,775,0,0,1,0
1670699052153.00,-0.053882606,0.074781527,0.2894687523945993,-214.49,121.25,-19.55,85740,31936,0,224.13959225085003,776,0,0,1,0
1670699052162.00,-0.013362367,-0.525145402,0.8394475275965624,-236.35,147.13,-49.23,85955,31936,0,224.7031062753485,777,0,0,1,1
1670699052169.00,-0.062850273,-0.445048848,0.7294081789090665,-230.8,144.29,-43.69,85955,31936,0,224.7031062753485,777,0,0,1,1
1670699052178.00,-0.012346595,-0.404926903,0.8893495226015925,-252.12,135.21,-13.34,86042,31936,0,224.9311328806107,779,0,0,1,1
1670699052185.00,0.21814840282474265,-0.404777489,0.9092700634089297,-268.31,127.41,23.39,86042,31936,0,224.9311328806107,779,0,0,1,1
1670699052194.00,0.3786344340063346,0.005401627,0.539167975,-264.22,132.34,48.54,86227,31936,0,225.4160170412257,780,0,0,1,1
1670699052201.00,0.4191111339754508,0.4256127814863492,0.019041134,-247.8,128.56,56.36,86227,31936,0,225.4160170412257,781,0,0,1,1
1670699052210.00,0.38957800849537594,0.9758582932730173,-0.541112765,-236.68,103.71,50.74,86184,31936,0,225.3033142,782,0,0,0,1
1670699052217.00,0.3300344102929128,1.2561402980233138,-0.891296031,-233.36,79.54,47.51,86184,31936,0,225.3033142,783,0,0,0,1
1670699052226.00,-0.519520437,2.106460565037929,-1.321510784,-249.01,38.94,19.22,86783,31936,0,226.87329051853345,784,0,0,0,1
1670699052233.00,-0.73908734,2.296820300214417,-1.201758797,-268.62,49.26,3.57,86783,31936,0,226.87329051853345,785,0,0,0,1
1670699052242.00,-0.808666973,2.917219942642023,-0.722041405,-258.05,117.56,-27.8,88780,31936,0,232.10741845771247,786,0,0,0,1
1670699052249.00,0.5217402076992278,3.127658977143786,0.6376404481210951,-163.15,167.57,-40.11,88780,31936,0,232.10741845771247,787,0,0,0,1
1670699052258.00,1.7321338615512656,1.5481358196334751,0.7272859979927577,30.76,79.46,-95.37,92291,31936,0,241.30973352754603,788,0,0,0,1
1670699052265.00,1.7025134519783185,0.20864790997427757,0.32689440504416506,157.14,-113.94,-134.98,92291,31936,0,241.30973352754603,789,0,0,0,0
1670699052274.00,1.5128779441415388,0.01919205,-1.09353533,199.41,-276.57,-107.35,88944,31936,0,232.53726171360896,790,1,0,0,0
1670699052281.00,1.263225680149115,0.079764775,-1.954004185,209.54,-286.72,-85.6,88944,31936,0,232.53726171360896,791,1,0,0,0
1670699052290.00,-0.226445558,0.3103625405845811,-3.004512756,178.13,-243.3,-98.4,87713,31936,0,229.31081629892225,792,1,0,0,0
1670699052297.00,-0.726138329,0.4809817416060812,-2.61506088,155.05,-213.2,-93.9,87713,31936,0,229.31081629892225,793,1,0,0,0
1670699052306.00,-0.285855243,0.491618657,-1.845647417,133.59,-188.52,-68.11,88048,31936,0,230.1888497789548,794,1,0,0,0
1670699052313.00,1.1844011879911627,0.29226940593542683,-2.556270236,145.27,-208.31,-76.81,88048,31936,0,230.1888497789548,795,1,0,0,0
1670699052322.00,1.9446284083391145,0.13292994361356983,-2.686926275,154.27,-249.35,-91.84,88589,31936,0,231.6068083243208,796,1,0,0,0
1670699052329.00,1.084823509111343,0.093596106,-1.287611539,135.21,-275.09,-95.21,88589,31936,0,231.6068083243208,797,1,0,0,0
1670699052338.00,-1.55501689,-0.375736331,0.7816787809131212,173.05,-286.72,-33.88,91498,31936,0,239.23128412555852,798,1,1,0,0
1670699052345.00,-3.784896305,-1.715071549,1.2209499072471832,216.57,-286.72,40.74,91498,31936,0,239.23128412555852,799,1,1,0,0
1670699052354.00,-3.334817715,-2.294413454,0.9602069965144711,286.68,-284.96,158.51,93949,31936,0,245.6553440048414,800,0,1,0,0
1670699052361.00,-3.194782994,-2.16376538,1.479454843707768,286.68,-214.25,110.91,93949,31936,0,245.6553440048414,800,0,1,0,0
1670699052370.00,-1.054792753,-2.073129869,0.9386977877997409,278.77,65.52,20.12,92214,31936,0,241.10791687691167,802,0,1,0,0
1670699052377.00,1.1651533762210355,-1.242508628,-0.002060273,193.98,229.33,-30.98,92214,31936,0,241.10791687691167,802,0,1,0,0
1670699052386.00,1.6750561650213347,-0.561902645,1.2271842151201648,57.23,286.61,-44.21,89583,31936,0,234.21207781432776,803,0,1,0,0
1670699052393.00,1.8549161814137691,0.20868759069280973,1.2064345261517602,4.45,182.6,-34.36,89583,31936,0,234.21207781432776,804,0,1,0,0
1670699052402.00,1.1247334397491184,0.46926181742140477,0.3056935972747372,45.76,12.67,-21.5,89734,31936,0,234.6078481292081,805,0,1,0,0
1670699052409.00,-1.455492595,-0.360180209,0.39496402288346055,75.75,-89.68,-16.86,89734,31936,0,234.6078481292081,806,0,1,0,0
1670699052418.00,-4.675762592,-1.089638747,1.234248130463491,85.53,-51.17,-42.01,90425,31936,0,236.4189559939917,807,0,1,0,0
1670699052425.00,-4.126076591,-1.689113902,1.523547966665344,119.36,84.32,-36.58,90425,31936,0,236.4189559939917,808,0,1,0,0
1670699052434.00,-0.426433393,-2.488605361,1.662865152926306,33.95,118.68,24.39,88628,31936,0,231.7090271473693,809,0,0,0,0
1670699052441.00,-0.62683062,-1.878112147,1.5222007458250264,13.76,196.23,80.14,88628,31936,0,231.7090271473693,810,0,0,0,0
1670699052450.00,-0.517265226,-0.56763251,0.9115551957006978,-7.9,208.09,159.08,86733,31936,0,226.74224074539424,811,0,0,0,0
1670699052457.00,0.17226611953445392,0.3728359140498426,0.6309284145108702,-75.54,157.69,232.23,86733,31936,0,226.74224074539424,812,0,0,0,0
1670699052466.00,0.7517668638409611,1.3632957565934094,0.5503199077827348,-90.47,118.43,250.18,86542,31936,0,226.24163061200252,813,0,0,0,0
1670699052473.00,1.18124039,2.3037495011469935,0.4297288920906479,-69.66,2.91,239.71,86542,31936,0,226.24163061200252,814,0,0,0,0
1670699052482.00,0.6206898319205529,2.4841991128436227,0.019154373,21.44,-82.07,148.89,86937,31936,0,227.2769238198021,815,0,0,0,0
1670699052489.00,0.44011799340515445,2.344645760419997,-0.761404763,50.18,-99.31,123.12,86937,31936,0,227.2769238198021,816,0,0,1,0
1670699052498.00,0.4295273948991844,0.45508973173293976,-1.531949574,70.32,-64.88,122.71,88640,31936,0,231.74047909292275,817,0,0,1,0
1670699052505.00,0.1589203525908996,-0.454469376,-1.172480833,-2.97,30.2,54.65,88640,31936,0,231.74047909292275,818,0,0,1,0
1670699052514.00,-0.481700945,-0.484032271,0.057001104,-102.21,124.63,-60.27,90549,31936,0,236.7439594313768,819,0,0,1,0
1670699052521.00,-0.182334334,-0.263599643,1.356496191689571,-157.13,131.01,-72.43,90549,31936,0,236.7439594313768,820,0,0,1,0
1670699052530.00,0.027022413,-0.373172041,1.4060043591221645,-142.93,129.26,-66.67,91564,31936,0,239.40426982610228,821,0,0,1,0
1670699052537.00,0.24637158349257116,-0.292749869,0.8955251941873824,-157.63,133.46,-53.05,91564,31936,0,239.40426982610228,822,0,0,1,1
1670699052546.00,0.5557154558184692,-0.512333395,0.5150578352178623,-210.12,122.61,-29.56,90919,31936,0,237.7137277526068,823,0,0,1,1
1670699052553.00,0.7150561982816206,-0.641922733,0.3946010511930232,-226.34,115.92,-20.2,90919,31936,0,237.7137277526068,823,0,0,1,1
1670699052562.00,0.5543957859687438,-0.381517806,0.054153369,-226.49,117.56,-9.33,93042,31936,0,243.27810112009655,825,0,0,0,1
1670699052569.00,0.3437359614851268,-0.181118343,-0.206286818,-226.82,113.87,-1.57,93042,31936,0,243.27810112009655,825,0,0,0,1
1670699052578.00,-0.246921729,0.7692760615614834,-0.646721139,-233.69,88.31,13.76,97259,31936,0,254.33083898665544,826,0,0,0,1
1670699052585.00,-0.717575821,2.0196657670223592,-0.667151128,-245.38,57.52,30.04,97259,31936,0,254.33083898665544,827,0,0,0,1
1670699052594.00,-0.00822479,3.260050762285021,0.032421864289509605,-229.75,9.11,39.83,105644,31936,0,276.30788594209673,828,0,0,0,1
1670699052601.00,1.0511329879330926,2.070430284907175,0.4019966427530368,-124.72,38.96,-3.33,105644,31936,0,276.30788594209673,829,0,0,0,1
1670699052610.00,1.6504990674689097,0.2408026513201227,0.8415720289809088,-43.01,103.14,-73.42,117371,31936,0,307.04429973416114,830,0,0,0,1
1670699052617.00,1.7498746580380016,-0.758834513,0.8811466919479634,6.05,76.3,-109.41,117371,31936,0,307.04429973416114,831,0,0,0,1
1670699052626.00,1.2592604109605083,-1.528483791,-1.039280928,90.95,-152.74,-138.44,126724,31936,0,331.55847029757706,832,1,0,0,0
1670699052633.00,1.0886563720133395,-0.638147562,-1.389712479,57.67,-185.8,-114.93,126724,31936,0,331.55847029757706,833,1,0,0,0
1670699052642.00,0.17806206972047572,1.4321721230290083,-2.120149369,35.38,-229.97,-100,133709,31936,0,349.8661236051212,834,1,0,0,0
1670699052649.00,-1.152523289,1.7824732921738697,-2.240592452,52.8,-248.23,-87.3,133709,31936,0,349.8661236051212,835,1,0,0,0
1670699052658.00,-0.403100537,0.8227536625588201,-3.001041798,106.99,-210.31,-63.61,137308,31936,0,359.2990862756797,836,1,0,0,0
1670699052665.00,0.7663296379777467,-0.716989507,-3.871496502,148.86,-251.67,-48.38,137308,31936,0,359.2990862756797,837,1,0,0,0
1670699052674.00,1.2457666149176951,-1.556759182,-2.101954494,185.32,-286.71,-62.17,141165,31936,0,369.4082657756365,838,1,0,0,0
1670699052681.00,1.8152095559124286,-2.156558142,-0.602412546,190.11,-286.72,-79.97,141165,31936,0,369.4082657756365,839,1,1,0,0
1670699052690.00,-0.625342795,-1.896388616,2.4971333460572045,152.23,-219.49,-59.76,140080,31936,0,366.56448569851614,840,1,1,0,0
1670699052697.00,-1.005892021,-2.176252096,3.1366872531663454,165.47,-93.33,-25.09,140080,31936,0,366.56448569851614,841,1,1,0,0
1670699052706.00,-0.956439701,-2.066149267,1.2962526408092323,236.58,59.92,-22.73,133751,31936,0,349.97620541455814,842,0,1,0,0
1670699052713.00,-0.576987134,-0.74608002,0.6958321240734264,186.26,138.06,-81.31,133751,31936,0,349.97620541455814,843,0,1,0,0
1670699052722.00,0.34246468664954055,0.5139563877400511,0.3354276710477149,135.4,113.93,-102,117398,31936,0,307.1150666116563,844,0,1,0,0
1670699052729.00,1.0719149149904519,1.1239609935185728,0.9750408803443298,75.25,122.73,-83.07,117398,31936,0,307.1150666116563,845,0,1,0,0
1670699052738.00,0.5613626138165683,0.4839347584176281,0.0446731,134.5,69.63,-47.92,109623,31936,0,286.73682688851306,846,0,1,0,0
1670699052745.00,-1.049193364,-0.266121599,-1.265674491,147.73,45.35,-26.65,109623,31936,0,286.73682688851306,847,0,1,0,0
1670699052754.00,-3.21975418,-0.776207511,0.503999288,89.35,-110.9,-18.8,107812,31936,0,281.9902041054118,848,0,1,0,0
1670699052761.00,-4.230320495,-1.016322344,1.5336956874903533,67.05,-21.49,-15.41,107812,31936,0,281.9902041054118,848,0,1,0,0
1670699052770.00,0.089108022,-1.68646519,1.923415809475183,163.58,170.59,70,100957,31936,0,264.0232802080296,850,0,0,0,0
1670699052777.00,1.2085326452928413,-1.996634688,2.1231602614713276,100.7,-7.01,73.57,100957,31936,0,264.0232802080296,850,0,0,0,0
1670699052786.00,0.7879549962800253,-1.566828863,2.072928934302859,-63.37,-43.62,50.03,92670,31936,0,242.30309080794103,851,0,0,0,0
1670699052793.00,0.23737652813707044,-1.227045064,2.012720913897316,-55.03,-79.26,123.32,92670,31936,0,242.30309080794103,852,0,0,0,0
1670699052802.00,-0.00320157,-0.677280022,1.2125344851195012,-17.49,-57.22,143.76,88363,31936,0,231.01446334973167,853,0,0,0,0
1670699052809.00,0.28622173869384615,0.19246998218347067,0.022367250329236865,5.83,-30.05,158.52,88363,31936,0,231.01446334973167,854,0,0,0,0
1670699052818.00,0.2556474150726542,0.9022088909916102,-0.517783611,11.28,-27.92,146.6,86844,31936,0,227.03317124176323,855,0,0,0,0
1670699052825.00,0.12507634171875823,1.0319405991529875,-0.527921031,-11.51,-58.53,133.23,86844,31936,0,227.03317124176323,856,0,0,1,0
1670699052834.00,0.034509321444101015,1.2716687297377005,-1.098047813,-51.37,-79.99,106.96,86601,31936,0,226.3962693443068,857,0,0,1,0
1670699052841.00,0.23394709642034445,1.371396495494844,-1.37816649,-40.65,-37.4,113.38,86601,31936,0,226.3962693443068,858,0,0,1,0
1670699052850.00,0.2833903543910778,1.0411266306193476,-1.058279199,-61.46,34.3,91.53,86754,31936,0,226.7972816501127,859,0,0,1,0
1670699052857.00,-0.147160283,0.19086140283221892,-0.258387638,-139.01,119.22,49.53,86754,31936,0,226.7972816501127,860,0,0,1,0
1670699052866.00,-0.287704239,-0.52939725,0.6315068312630328,-205.56,181.96,16.63,87003,31936,0,227.44990952034584,861,0,0,1,1
1670699052873.00,-0.298240913,-0.489647493,1.171402930789968,-243.95,206.54,13.42,87003,31936,0,227.44990952034584,862,0,0,1,1
1670699052882.00,-0.368769614,-0.399887396,1.061299198055369,-253.5,211.84,31.18,87336,31936,0,228.3227010094528,863,0,0,1,1
1670699052889.00,-0.249289532,-0.410114859,0.8811938106241394,-261.16,214.19,48.15,87336,31936,0,228.3227010094528,864,0,0,1,1
1670699052898.00,0.22020025543423916,-0.170327615,0.36108455769528514,-277.79,226.84,86.79,87117,31936,0,227.7487030031032,865,0,0,1,1
1670699052905.00,0.3297007214386291,-0.050523264,0.13096892220351808,-269.67,245.44,94.45,87117,31936,0,227.7487030031032,866,0,0,0,1
1670699052914.00,0.5492127939200531,0.43930066345363317,-0.229155789,-260.26,235.45,116.34,87506,31936,0,228.76827023812604,867,0,0,0,1
1670699052921.00,0.6187372654338804,1.2391465968827993,-0.50929231,-263.81,186.2,117.43,87506,31936,0,228.76827023812604,868,0,0,0,1
1670699052930.00,0.27827473928812607,1.8090167409482614,-0.819443293,-242.17,123.08,92.19,87633,31936,0,229.1011366618996,869,0,0,0,1
1670699052937.00,-0.17217436,2.0089128415918642,-1.119611183,-228.42,83.28,63.19,87633,31936,0,229.1011366618996,870,0,0,0,1
1670699052946.00,-0.562609695,2.478835977196497,-0.959798112,-235.62,126.37,25.41,88378,31936,0,231.05377828167343,871,0,0,0,1
1670699052953.00,-0.31303088,2.6487864007446182,-0.410005843,-226.51,159.21,12.02,88378,31936,0,231.05377828167343,871,0,0,0,1
1670699052962.00,1.6965625534052744,1.808763439332714,0.4597641658725735,-25.98,124.45,-65.14,90565,31936,0,236.78589535878135,873,0,0,0,0
1670699052969.00,1.9161709630488213,1.0887655186343506,0.37951058715267505,50.28,54.93,-100.79,90565,31936,0,236.78589535878135,873,0,0,0,0
1670699052978.00,1.9857942582547639,0.1987903539652039,-0.120767947,158.8,-137.43,-134.13,91568,31936,0,239.41475380795345,874,0,0,0,0
1670699052985.00,1.975431652522207,0.05883523,-2.161072829,212.68,-286.17,-110.79,91568,31936,0,239.41475380795345,875,1,0,0,0
1670699052994.00,1.3050815990484104,0.5188972286429548,-2.651405202,171.01,-286.72,-107.23,91843,31936,0,240.1355275602189,876,1,0,0,0
1670699053002.00,-0.875258099,0.8089733047643775,-2.641765554,138.48,-286.05,-82.99,92940,31936,0,243.01075958289263,877,1,0,0,0
1670699053009.00,-1.685589951,0.6890602263854717,-2.792153422,137.19,-253.34,-58.73,92940,31936,0,243.01075958289263,878,1,0,0,0
1670699053018.00,-0.645916329,-0.080845479,-2.942567278,151.54,-216.2,-50.99,94763,31936,0,247.78883431154733,879,1,0,0,0
1670699053025.00,1.1437607339243854,-0.820747454,-2.253004498,153.48,-214.37,-55.88,94763,31936,0,247.78883431154733,880,1,0,0,0
1670699053034.00,2.063439330038091,-1.060649306,-0.023461446,215.64,-228.82,-93.89,96082,31936,0,251.24592732695905,881,1,0,0,0
1670699053041.00,0.9431172553786619,-1.220554396,1.3060661836320515,237.49,-275.01,-91.57,96082,31936,0,251.24592732695905,882,1,0,0,0
1670699053050.00,-3.327208111,-1.940465671,1.455582830761802,255.39,-286.7,29.37,98455,31936,0,257.4655495601447,883,1,1,0,0
1670699053057.00,-3.477539349,-2.000385525,0.9650926298028946,286.66,-202.67,120.85,98455,31936,0,257.4655495601447,884,0,1,0,0
1670699053066.00,-2.087878284,-1.76031567,0.9345992478411265,282.14,-22.16,-4.19,96200,31936,0,251.5552047915675,885,0,1,0,0
1670699053073.00,0.3717742851551881,-0.770257101,-0.235894058,259.22,138.5,-82.32,96200,31936,0,251.5552047915675,886,0,1,0,0
1670699053082.00,1.431418228098815,0.059789776,0.7736157027020008,116.29,269.73,-53.62,91723,31936,0,239.8210081046849,887,0,1,0,0
