epoch,ax,ay,az,gx,gy,gz,load,offset,error,force,frame,LF,RF,LH,RH,
1670359906485.00,-0.378645677,-1.14691019,0.005055049,-132.48,-93.55,111.21,-5964,14228,0,-16.0041047,0,0,0,0,1,
1670359906492.00,-0.068308306,-1.316724447,0.24440223714633796,-215.35,-26.24,117.02,-5964,14228,0,-16.0041047,2,0,0,0,1,
1670359906502.00,-0.047963435,-0.756504866,0.5537211248123479,-239.98,-5.39,105.67,-5371,14228,0,-14.43633586,4,0,0,0,1,
1670359906509.00,-0.067612507,-0.456250947,0.3130109692097355,-232.57,-20.88,105.36,-5371,14228,0,-14.43633586,6,0,0,0,1,
1670359906518.00,0.022743066344220186,-0.225961869,-0.137729108,-229.11,-93.96,116.02,-5580,14228,0,-14.98888846,8,0,0,1,1,
1670359906525.00,0.083101884,-0.055636608,-0.368500069,-242.79,-115.96,117.11,-5580,14228,0,-14.98888846,10,0,0,1,1,
1670359906535.00,0.013462541925366042,0.9547259387896967,-0.989302842,-275.69,-147.2,96.43,-5227,14228,0,-14.05562977,12,0,0,1,0,
1670359906542.00,0.03382362,1.3151267882635982,-1.140138163,-286.2,-152.69,93.05,-5227,14228,0,-14.05562977,14,0,0,1,0,
1670359906552.00,0.20418368059293396,1.985566645,-1.331006437,-265.44,-103.2,93.57,-3472,14228,0,-9.415774287,16,0,0,1,0,
1670359906559.00,0.3845412450996585,2.7060456583197827,-1.091907627,-184.61,-20.06,90.9,-3472,14228,0,-9.415774287,18,0,0,1,0,
1670359906568.00,0.16489475983230314,3.1165631759657075,-0.062841249,-70.67,15.85,90.36,-3449,14228,0,-9.354967064,20,0,0,1,0,
1670359906575.00,-0.384757415,2.397117540232415,0.16619350662261584,35.3,-17.69,125.21,-3449,14228,0,-9.354967064,22,0,0,1,0,
1670359906585.00,-0.73441693,1.107706040446684,-0.594802399,143.85,-52.41,134.02,-2746,14228,0,-7.496381077,24,0,0,1,0,
1670359906592.00,-1.074085306,0.41832510782765325,-0.875827917,214.24,-71.31,74.3,-2746,14228,0,-7.496381077,26,0,0,1,0,
1670359906602.00,-1.503763772,-0.011029351,-0.996881809,222.2,-46.74,36.72,-1995,14228,0,-5.510893059,28,0,0,1,0,
1670359906609.00,-1.683453125,-0.170361655,-1.097962528,217.77,-14.81,28.57,-1995,14228,0,-5.510893059,30,0,0,0,0,
1670359906618.00,-1.333153607,-0.179676172,-1.199068131,179.87,80.96,23.39,448,14228,0,0.94789153,32,0,0,0,0,
1670359906625.00,-1.16286487,-0.258977229,-1.280196242,170.61,133.59,24.34,448,14228,0,0.94789153,34,1,0,0,0,
1670359906635.00,-1.092586021,-0.298269073,-2.021343992,173.52,258.2,21.06,-1143,14228,0,-3.258382019,36,1,0,0,0,
1670359906642.00,-0.842315682,-0.197555858,-2.082507918,147.11,286.24,47.69,-1143,14228,0,-3.258382019,38,1,0,0,0,
1670359906652.00,-0.022052084,-0.336841634,-1.123683863,104,253.69,74.64,-488,14228,0,-1.526698063,40,1,0,0,0,
1670359906659.00,1.148206785264673,-0.376130342,1.315132955263559,125.57,196.6,7.24,-488,14228,0,-1.526698063,42,1,0,0,0,
1670359906668.00,1.0984629064171498,-0.71542579,3.653947522957257,228.28,3.25,-103.42,5801,14228,0,15.100111713128005,44,1,0,0,0,
1670359906675.00,0.6487179878339057,-1.754731577,2.5127643662976142,286.14,-111.96,-110.34,5801,14228,0,15.100111713128005,46,1,0,0,0,
1670359906685.00,0.3889733846019413,-2.094050921,0.8215870902998279,250.02,18.21,-101.18,6770,14228,0,17.66194645201352,48,1,0,0,0,
1670359906692.00,-0.930769799,-1.223386458,0.6404184286491346,216.12,81.37,-38.01,6770,14228,0,17.66194645201352,50,1,0,0,0,
1670359906702.00,-1.47051048,-0.552740179,1.1392605579401611,125.52,-27.7,27.16,-797,14228,0,-2.343629884,52,1,1,0,0,
1670359906709.00,-0.960247319,-0.232113582,1.148115271988459,95.28,-55.36,58.01,-797,14228,0,-2.343629884,54,0,1,0,0,
1670359906718.00,-0.129978577,0.098492114,-0.823015984,140.42,163.59,46.8,-2924,14228,0,-7.966976106,56,0,1,0,0,
1670359906725.00,0.020297814108242024,-0.400924188,-0.424131975,130.61,259.7,54.14,-2924,14228,0,-7.966976106,58,0,1,0,0,
1670359906735.00,2.880583998541463,-1.990363476,1.8747685125880102,64.56,207.87,57.09,-1211,14228,0,-3.438159896,60,0,1,0,0,
1670359906742.00,3.5308817795621446,-1.529826442,-0.326313372,179.88,36.02,-13.88,-1211,14228,0,-3.438159896,62,0,1,0,0,
1670359906752.00,3.2611920968882133,-2.069313241,0.8326233143788541,161.74,-38.34,-15.14,-2030,14228,0,-5.60342579,64,0,1,0,0,
1670359906759.00,1.6415147076334438,-2.148823328,1.4715792695114929,-28.98,-51.69,-136.66,-2030,14228,0,-5.60342579,66,0,1,0,0,
1670359906768.00,0.21184828769752675,-1.218355405,1.470554867333277,-78.12,-52.33,-248.93,-2731,14228,0,-7.456724192,68,0,1,0,0,
1670359906775.00,-0.437809156,-0.49790747,0.8595500188587534,-72.15,-118.48,-254.29,-2731,14228,0,-7.456724192,70,0,1,0,0,
1670359906785.00,-0.647459835,0.3425229670701111,0.2685641549934805,-70.17,-120.08,-184.95,-3972,14228,0,-10.73767044,72,0,0,0,0,
1670359906792.00,-0.377105881,0.912938588,-0.352403623,-70.06,-85.24,-150.5,-3972,14228,0,-10.73767044,74,0,0,0,0,
1670359906802.00,-0.196749249,1.2533419821609064,-0.693354326,-108.73,52.48,-79.46,-4855,14228,0,-13.07213904,76,0,0,0,0,
1670359906809.00,-0.046391743,1.1737354260000712,-0.584288873,-125.33,91.52,-57.15,-4855,14228,0,-13.07213904,78,0,0,0,0,
1670359906818.00,-0.046035074,1.0141207662977045,-0.705207978,-137.32,-16.2,-47.08,-4928,14228,0,-13.26513588,80,0,0,0,0,
1670359906825.00,-0.135680914,0.9944994004074004,-0.7261121,-115.25,-83.23,-56.39,-4928,14228,0,-13.26513588,82,0,0,0,0,
1670359906835.00,-0.725330882,1.0148723010236644,-0.517001432,-110.81,-197.79,-45.42,-3945,14228,0,-10.66628804,84,0,0,0,0,
1670359906842.00,-0.774986484,0.5152400474575098,0.032124079,-126.68,-252.21,-7.63,-3945,14228,0,-10.66628804,86,0,0,0,0,
1670359906852.00,-0.954648997,0.36560288210581837,0.10126464443333062,-131,-211.74,-12.32,-2682,14228,0,-7.327178369,88,0,0,1,0,
1670359906859.00,-0.914319392,0.3659607985991359,0.4404205230546459,-143.79,-128.74,5.08,-2682,14228,0,-7.327178369,90,0,0,1,0,
1670359906868.00,-0.663998293,0.10631361997468737,0.45959191074123706,-142.6,-97.05,16.84,-3779,14228,0,-10.22741852,92,0,0,1,0,
1670359906875.00,-0.403685993,-0.343338937,0.2587788747111368,-154.04,-81.51,22.94,-3779,14228,0,-10.22741852,94,0,0,1,0,
1670359906885.00,-0.053382535,-0.692997165,0.2779813341867795,-199.87,-69.67,19.15,-3488,14228,0,-9.458074963,96,0,0,1,0,
1670359906892.00,0.006912198,-0.712661239,0.34719907643292053,-228.84,-68.85,13.1,-3488,14228,0,-9.458074963,98,0,0,1,1,
1670359906902.00,-0.032801615,-0.302331119,-0.293568217,-286.16,-48.64,10.68,749,14228,0,1.743673012560785,100,0,0,1,1,
1670359906909.00,-0.022523775,0.11799344458458477,-0.454320912,-286.72,-19.01,14.59,749,14228,0,1.743673012560785,102,0,0,1,1,
1670359906918.00,0.4877459104518622,1.6483127849434323,-0.56505931,-286.72,54.87,33.02,7162,14228,0,18.69831303368857,104,0,0,1,1,
1670359906925.00,0.7780075740002665,1.6586270577713595,-0.695783551,-286.21,65.31,65.46,7162,14228,0,18.69831303368857,106,0,0,1,1,
1670359906935.00,0.558261186,2.1689359487828956,-0.936493547,-219.35,-18.31,61.87,16717,14228,0,43.95974846,108,0,0,0,1,
1670359906942.00,-0.181493498,2.4992384493580433,0.23281105285499343,-121.94,-53.26,95.96,16717,14228,0,43.95974846,110,0,0,0,1,
1670359906952.00,-0.621256864,0.9895327456768273,0.44213078616584855,56,32.67,94.37,28738,14228,0,75.74077570261936,112,0,0,0,1,
1670359906959.00,-0.751029262,-0.160183703,-0.098533774,164.08,114.08,84.59,28738,14228,0,75.74077570261936,114,0,0,0,1,
1670359906968.00,-1.040810849,-0.319913863,-0.159182107,196.71,174.33,35.14,31355,14228,0,82.65958015222039,116,0,0,0,1,
1670359906975.00,-1.030601468,-0.139660806,-0.679813695,250.83,250.6,-14.14,31355,14228,0,82.65958015222039,118,0,0,0,1,
1670359906985.00,-0.180400612,-0.069427546,-2.130427876,272.1,286.45,-26.05,31062,14228,0,81.88494900826429,120,0,0,0,0,
1670359906992.00,0.2997925146075909,0.1907829622450889,-2.331023597,255.32,286.3,-35.53,31062,14228,0,81.88494900826429,122,1,0,0,0,
1670359907002.00,-1.380021133,-0.549032211,-2.331599125,115.55,126.71,98.29,34331,14228,0,90.52750603759014,124,1,0,0,0,
1670359907009.00,-0.549840449,-0.838875937,-0.732151896,124.15,75.32,138.73,34331,14228,0,90.52750603759014,126,1,0,0,0,
1670359907019.00,0.1503359042583503,-1.788750894,1.8773213141914145,112.79,32.58,101.65,40724,14228,0,107.4292702127141,128,1,0,0,0,
1670359907026.00,1.1005094355682732,-1.728659362,2.946823868350233,184.26,101.41,64.57,40724,14228,0,107.4292702127141,130,1,0,0,0,
1670359907036.00,0.8506815884387134,-1.688603043,1.6963586442439853,285.51,36.71,17.14,37761,14228,0,99.59571362724684,132,1,0,0,0,
1670359907043.00,0.12085355282553922,-1.498582974,0.8559277187208147,286.07,-9.04,21.1,37761,14228,0,99.59571362724684,134,1,0,0,0,
1670359907052.00,-0.258973728,-0.568599559,0.9455324649654688,177.84,20.62,80.06,30648,14228,0,80.79041899598504,136,1,0,0,0,
1670359907059.00,-0.138799411,-0.228652704,1.6551737497126178,125.47,5.96,114.67,30648,14228,0,80.79041899598504,138,1,1,0,0,
1670359907069.00,0.051377364,0.081257983,0.5148519925169055,144.61,-97.21,145.29,20405,14228,0,53.71005446512398,140,1,1,0,0,
1670359907076.00,0.38155748574530685,0.091133013,0.794567178,157.91,-146.54,81.25,20405,14228,0,53.71005446512398,142,0,1,0,0,
1670359907086.00,1.2717417872193582,0.12097290677863348,0.17431894286618815,134.93,-181.74,-44.13,13692,14228,0,35.96227675393876,144,0,1,0,0,
1670359907093.00,1.221930884303636,-0.429221829,0.6141066773517476,159.45,-66.75,-100.96,13692,14228,0,35.96227675393876,146,0,1,0,0,
1670359907102.00,2.642124976,-1.329450643,0.21392958835612988,131.62,-81.27,-113.01,9171,14228,0,24.00969176,148,0,1,0,0,
1670359907109.00,1.5623236380085461,-0.899712779,0.513786719,121.86,22.2,-121.21,9171,14228,0,24.00969176,150,0,1,0,0,
1670359907119.00,0.6525257270685557,-1.300007117,1.3636769300683584,119.34,-1.74,-121.98,1848,14228,0,4.649200750471191,152,0,1,0,0,
1670359907126.00,0.072729504,-1.840332088,1.1935988021235049,84.89,-18.86,-134.3,1848,14228,0,4.649200750471191,154,0,1,0,0,
1670359907136.00,-0.227067092,-1.590685579,0.9035505140040065,-77.46,0.11,-139.72,-2205,14228,0,-6.066089442,156,0,1,0,0,
1670359907143.00,-0.286866206,-1.281064858,0.643529811,-100,-7.32,-147.77,-2205,14228,0,-6.066089442,158,0,1,0,0,
1670359907152.00,-0.616669929,-0.151466612,-0.456465904,-93.2,13.06,-171.39,-4626,14228,0,-12.4667106,160,0,0,0,0,
1670359907159.00,-0.496480214,0.13811288566765612,-0.736439378,-98.45,31.1,-150.8,-4626,14228,0,-12.4667106,162,0,0,0,0,
1670359907169.00,-0.046298837,0.7176775162865978,-0.666393289,-150.34,69.95,-100.32,-5861,14228,0,-15.73179409,164,0,0,0,0,
1670359907176.00,0.17387256914701527,0.5672311032637691,-0.406330097,-177.8,41.62,-79.4,-5861,14228,0,-15.73179409,166,0,0,0,0,
1670359907186.00,-0.005967573,0.5867772811248403,-0.576252022,-149.53,-49.75,-87.79,-5958,14228,0,-15.98824194,168,0,0,0,0,
1670359907193.00,-0.135820847,0.8663194443130213,-0.606161068,-129.9,-106.74,-101.32,-5958,14228,0,-15.98824194,170,0,0,0,0,
1670359907202.00,-0.235688832,1.0958607112036252,-0.316059026,-136.86,-135.91,-87.76,-5605,14228,0,-15.05498326,172,0,0,0,0,
1670359907209.00,-0.22557306,0.6154038731550999,0.12405250046649136,-139.33,-175.5,-75.15,-5605,14228,0,-15.05498326,174,0,0,1,0,
1670359907219.00,-0.735474976,-0.025048604,0.21417201173090494,-145.92,-219.37,-55.22,-5722,14228,0,-15.36430696,176,0,0,1,0,
1670359907226.00,-1.105395861,-0.355494467,0.37429800528227486,-150.81,-218.31,-36.95,-5722,14228,0,-15.36430696,178,0,0,1,0,
1670359907236.00,-1.275336717,-0.385931502,0.38442889530750424,-172.65,-138.57,32.19,-6035,14228,0,-16.19181395,180,0,0,1,0,
1670359907243.00,-1.355298138,-0.506357403,0.23456297131335546,-175.58,-111.95,48.62,-6035,14228,0,-16.19181395,182,0,0,1,0,
1670359907252.00,-0.705280249,-0.436769709,-0.055301599,-199.11,-36.92,55.78,-5542,14228,0,-14.88842435,184,0,0,1,0,
1670359907259.00,-0.365282736,-0.237165787,-0.255166721,-231.22,-3.72,50.44,-5542,14228,0,-14.88842435,186,0,0,1,0,
1670359907269.00,-0.115304973,0.2124571393903315,-0.695034278,-273.55,41.39,36.53,-4419,14228,0,-11.91944559,188,0,0,1,1,
1670359907276.00,0.1146538319443974,0.6121019036970539,-1.054906023,-286.72,68.77,35.21,-4419,14228,0,-11.91944559,190,0,0,1,1,
1670359907286.00,0.5645945184381236,0.9417712562075926,-1.174783443,-286.72,102.95,37.75,-4168,14228,0,-11.25585373,192,0,0,1,1,
1670359907293.00,0.6545178558018787,1.5314677085330881,-1.134667645,-286.72,98.63,32.33,-4168,14228,0,-11.25585373,194,0,0,1,1,
1670359907302.00,0.29442444789949185,2.6311933465611124,-0.304559317,-286.1,24.95,55.45,-2121,14228,0,-5.844010889,196,0,0,0,1,
1670359907309.00,-0.295685281,3.140949576916476,0.8355411739755005,-185.69,-20.75,99.85,-2121,14228,0,-5.844010889,198,0,0,0,1,
1670359907319.00,-0.945810975,2.280736865927923,0.085633566,30.53,81.37,121.91,-2358,14228,0,-6.470589664,200,0,0,0,1,
1670359907326.00,-1.045952163,1.7405546382114778,-0.324282471,96.78,145.86,140.93,-2358,14228,0,-6.470589664,202,0,0,0,1,
1670359907336.00,-0.656108085,0.500401412,-0.784207303,179.26,177.13,162.87,-2455,14228,0,-6.727037517,204,0,0,0,1,
1670359907343.00,-0.336277652,0.26027508251130144,-0.74414118,192.8,158.18,145.17,-2455,14228,0,-6.727037517,206,0,0,0,0,
1670359907352.00,0.23354047871328065,0.2001732089340008,-1.334084099,204.41,169.13,83.89,-2538,14228,0,-6.946472278,208,0,0,0,0,
1670359907359.00,0.28334776379072024,0.30009319047724914,-1.504035686,192.84,197.18,23.07,-2538,14228,0,-6.946472278,210,1,0,0,0,
1670359907369.00,-0.336854347,0.2900323208311851,-1.703995082,176.06,207.18,2.82,-3761,14228,0,-10.17983026,212,1,0,0,0,
1670359907376.00,-1.247064395,0.069987792,-2.343960823,161.89,208.23,24.27,-3761,14228,0,-10.17983026,214,1,0,0,0,
1670359907386.00,-1.667280742,0.029956708450891295,-2.113930721,137.24,214.64,61.78,-3876,14228,0,-10.48386638,216,1,0,0,0,
1670359907393.00,-0.397501357,0.10993612423218932,1.0560981580582105,102.32,182.13,87.26,-3876,14228,0,-10.48386638,218,1,0,0,0,
1670359907402.00,0.8322761905174785,-0.110076935,3.2861291498847978,176.23,160.68,10.66,-3831,14228,0,-10.36489572,220,1,0,0,0,
1670359907409.00,1.1120544771349707,-0.790085434,2.186165321120171,282.67,102.3,-50.19,-3831,14228,0,-10.36489572,222,1,0,0,0,
1670359907419.00,1.3518358918714626,-1.520092215,1.7962089306710807,286.68,116.31,-63.58,-1982,14228,0,-5.476523759,224,1,0,0,0,
1670359907426.00,1.3716224150167244,-1.610099803,1.296261344553773,286.68,90.45,-50.17,-1982,14228,0,-5.476523759,226,1,0,0,0,
1670359907436.00,0.25141554973507807,-1.020110228,0.5063232179527599,272.35,-15.57,56.17,-903,14228,0,-2.623871867,228,1,0,0,0,
1670359907443.00,0.051216405,-0.740124987,0.6563947114467152,231.04,-55.64,75.67,-903,14228,0,-2.623871867,230,1,1,0,0,
1670359907452.00,-0.498974111,-0.410145141,0.096475668,136.39,-95.12,56.73,-3730,14228,0,-10.0978727,232,0,1,0,0,
1670359907459.00,-0.3291551,-0.34017145,-0.523434248,97.07,-48.81,6.91,-3730,14228,0,-10.0978727,234,0,1,0,0,
1670359907469.00,0.3106744269691742,-0.720204462,-0.463335399,71.16,109.85,-39.96,-4625,14228,0,-12.46406681,236,0,1,0,0,
1670359907476.00,1.2505154919336885,-1.220244509,0.7367719307265481,62.29,129.91,-71,-4625,14228,0,-12.46406681,238,0,1,0,0,
1670359907486.00,1.5303689540962473,-1.120291627,0.28688749642942335,104.04,5.79,-99.66,-5624,14228,0,-15.10521532,240,0,1,0,0,
1670359907493.00,2.450235248666119,-1.25034544,0.747010955,142.62,-0.82,-34.44,-5624,14228,0,-15.10521532,242,0,1,0,0,
1670359907502.00,1.8301141592183083,-2.050405094,1.557141744774812,32.05,-15.19,-74.2,-5749,14228,0,-15.43568935,244,0,1,0,0,
1670359907509.00,0.7800047167319509,-1.800469153,1.1672789612852301,-10.39,0.4,-132.77,-5749,14228,0,-15.43568935,246,0,1,0,0,
1670359907519.00,0.12990531462134472,-1.010535517,0.5074212559356595,-11.79,-2.16,-256.18,-5514,14228,0,-14.81439816,248,0,1,0,0,
1670359907526.00,-0.070186025,-0.490601468,0.2575668744870824,-24.44,-19.41,-260.79,-5514,14228,0,-14.81439816,250,0,1,0,0,
1670359907536.00,-0.500271405,0.1493361369565922,-0.812286174,-73.01,-68.69,-214.73,-6129,14228,0,-16.44033043,252,0,0,0,0,
1670359907543.00,-0.650352881,0.3592806396848621,-1.052139891,-89.65,-63.29,-195.34,-6129,14228,0,-16.44033043,254,0,0,0,0,
1670359907552.00,-0.32043236,0.6692353792838084,-1.011996066,-146.67,0.94,-138.39,-6334,14228,0,-16.98230785,256,0,0,0,0,
1670359907559.00,0.049488431242776465,0.9692035478674341,-0.601856139,-217.29,53.92,-110.37,-6334,14228,0,-16.98230785,258,0,0,0,0,
1670359907569.00,0.12940788481513102,1.4791880642387039,-0.261721206,-230.78,-32.79,-101.73,-5983,14228,0,-16.05433675,260,0,0,0,0,
1670359907576.00,0.3793244096320368,1.8691914322312295,-0.331592115,-172.25,-167.08,-89.02,-5983,14228,0,-16.05433675,262,0,0,0,0,
1670359907586.00,0.069236359,1.7292155913125027,-0.421469541,-99.86,-229.02,-51.06,-5626,14228,0,-15.1105029,264,0,0,0,0,
1670359907593.00,-0.490857979,0.959261833,-0.211354025,-91.25,-247.86,-26.22,-5626,14228,0,-15.1105029,266,0,0,0,0,
1670359907602.00,-1.290960286,0.039330870073248946,0.13875401480863808,-111.73,-236.32,-4.1,-5545,14228,0,-14.89635572,268,0,0,1,0,
1670359907609.00,-1.121072032,-0.530576938,0.34885421810668593,-118.55,-211.49,23.78,-5545,14228,0,-14.89635572,270,0,0,1,0,
1670359907619.00,-1.011194307,-0.240461318,0.5289461882340223,-129.12,-67.23,58.32,-5694,14228,0,-15.29028078,272,0,0,1,0,
1670359907626.00,-0.93132777,-0.210321916,0.3790294053177269,-121.97,-61.06,61.42,-5694,14228,0,-15.29028078,274,0,0,1,0,
1670359907636.00,-0.481472677,-0.590158253,-0.200896801,-122.9,-70.11,66.67,-5947,14228,0,-15.95916023,276,0,0,1,0,
1670359907643.00,-0.321628963,-0.619969709,-0.270833191,-166.93,-73.23,59.67,-5947,14228,0,-15.95916023,278,0,0,1,0,
1670359907652.00,-0.031796339,-0.389755475,-0.110780519,-244.84,-66.5,27.48,-5400,14228,0,-14.51300584,280,0,0,1,1,
1670359907659.00,0.098025607,0.2204854455114439,0.099260522,-286.51,-16.15,-8.14,-5400,14228,0,-14.51300584,282,0,0,1,1,
1670359907669.00,0.31783731343106136,0.7007541475610146,-0.140710717,-286.72,35.39,-12.58,-4757,14228,0,-12.81304739,284,0,0,1,1,
1670359907676.00,0.6276391716930371,1.201051645731323,-0.510694858,-279.84,58.07,-0.49,-4757,14228,0,-12.81304739,286,0,0,1,1,
1670359907686.00,0.47743144033761253,2.051378666953453,-0.620692442,-219.6,23.69,16.89,-2070,14228,0,-5.709177482,288,0,0,1,1,
1670359907693.00,-0.502785785,2.8917354062193685,-0.020703859,-156.51,-29.27,55.24,-2070,14228,0,-5.709177482,290,0,0,0,1,
1670359907702.00,-1.253012469,2.4721212640617565,-0.220729344,-16.2,68.07,105.04,-943,14228,0,-2.729623559,292,0,0,0,1,
1670359907709.00,-1.323248406,1.8725346802982181,-0.400769023,52,143.43,124.04,-943,14228,0,-2.729623559,294,0,0,0,1,
1670359907719.00,-1.183493005,0.9129731755306906,-1.150822902,153.2,240.15,130.57,-3334,14228,0,-9.050930949,296,0,0,0,1,
1670359907726.00,-0.903745196,0.7034335627383547,-1.400890755,172.73,240.24,123.67,-3334,14228,0,-9.050930949,298,0,0,0,1,
1670359907736.00,0.3359965112159106,0.5139121867956871,-1.720971956,187.47,274.17,88.1,-1805,14228,0,-5.008572522,300,1,0,0,0,
1670359907743.00,0.7157338425236534,0.7344050799274031,-1.611065331,171.96,278.49,35.76,-1805,14228,0,-5.008572522,302,1,0,0,0,
1670359907752.00,-0.034531477,0.8449080101551011,-1.571169083,169.61,285.72,-17.53,-808,14228,0,-2.372711599,304,1,0,0,0,
1670359907759.00,-0.924797816,0.24541647636243116,-2.271280751,133.24,216.81,49.25,-808,14228,0,-2.372711599,306,1,0,0,0,
1670359907769.00,-0.395063512,-0.334074251,-1.311397178,102.35,114.28,130.36,373,14228,0,0.749607108,308,1,0,0,0,
1670359907776.00,0.5746732440526664,-1.183568979,1.6484854217730824,151.61,99.09,84.52,373,14228,0,0.749607108,310,1,0,0,0,
1670359907786.00,1.4844143192353014,-1.883072344,3.2983710468571017,270.83,113.37,-4.33,10392,14228,0,27.237762163306964,312,1,0,0,0,
1670359907793.00,1.2541613783630914,-1.732588547,2.818263239,286.6,67.97,-82.51,10392,14228,0,27.237762163306964,314,1,0,0,0,
1670359907802.00,0.3839156817047679,-1.832121162,0.3281646243142327,286.68,26.14,-80.79,8269,14228,0,21.624991110000508,316,1,0,0,0,
1670359907809.00,-0.146321895,-1.831673061,-0.031922994,286.42,-8.86,-52.52,8269,14228,0,21.624991110000508,318,1,0,0,0,
1670359907819.00,-0.706550664,-0.751246415,1.2180017460109014,134,-210.22,39.15,4656,14228,0,12.072969529408793,320,1,1,0,0,
1670359907826.00,-0.806769895,-0.330842817,1.4379399523113354,102.6,-211.96,60.17,4656,14228,0,12.072969529408793,322,1,1,0,0,
1670359907836.00,-0.95697864,-0.270463475,0.7078923834535673,117.85,-104.86,77.28,2103,14228,0,5.323367787020012,324,0,1,0,0,
1670359907843.00,0.082824334,-0.900109381,-0.452140597,133.7,8.72,35.81,2103,14228,0,5.323367787020012,326,0,1,0,0,
1670359907852.00,1.7726404514672807,-1.839781297,0.7278411216325856,148.55,186.1,18.6,4606,14228,0,11.94077991439922,328,0,1,0,0,
1670359907859.00,3.3624709770544063,-0.979479608,0.1278375354913111,138.49,49.49,-74.78,4606,14228,0,11.94077991439922,330,0,1,0,0,
1670359907869.00,3.402316506974462,-0.609204214,-0.53215144,161.58,-13.85,-136.26,1347,14228,0,3.324660808075274,332,0,1,0,0,
1670359907876.00,1.6721765737390488,-1.138954572,0.8778740601493386,90.89,-100.62,-199.83,1347,14228,0,3.324660808075274,334,0,1,0,0,
1670359907886.00,-0.087950344,-1.528729754,1.737913820490673,-77.7,-121.32,-174.79,-1716,14228,0,-4.773275007,336,0,1,0,0,
1670359907893.00,-0.708066413,-1.118528396,1.657967328187445,-121.17,-109.16,-164.04,-1716,14228,0,-4.773275007,338,0,1,0,0,
1670359907902.00,-0.808173951,-0.668348647,0.4980335584700304,-56.59,-68.53,-208.1,-3619,14228,0,-9.804411755,340,0,1,0,0,
1670359907909.00,-0.818275098,-0.388188232,-0.071889005,-59.18,-42.84,-209.69,-3619,14228,0,-9.804411755,342,0,0,0,0,
1670359907919.00,-0.418371711,0.681955395,-0.821802133,-103.66,28.62,-143.96,-4840,14228,0,-13.03248215,344,0,0,0,0,
1670359907926.00,-0.198465378,0.9220848430187487,-0.641707581,-165.28,59.23,-113.36,-4840,14228,0,-13.03248215,346,0,0,0,0,
1670359907936.00,0.33144248801709725,0.8822025589533267,-0.161606915,-201.37,86.49,-74.51,-5257,14228,0,-14.13494354,348,0,0,0,0,
1670359907943.00,0.24135052790586048,0.7923106863928691,-0.521501497,-161.07,-11.06,-74.63,-5257,14228,0,-14.13494354,350,0,0,0,0,
1670359907952.00,0.13125733495117392,1.0024110236588575,-0.681392506,-116.2,-120.87,-83.01,-5390,14228,0,-14.48656792,352,0,0,0,0,
1670359907959.00,0.15116142158210155,0.9025050169691499,-0.481280935,-112.73,-195.47,-75.25,-5390,14228,0,-14.48656792,354,0,0,0,0,
1670359907969.00,-0.198938762,0.4725937596493901,-0.121167566,-114.08,-235.83,-63.31,-4765,14228,0,-12.83419773,356,0,0,0,0,
1670359907976.00,-0.739044769,0.21267803773910032,0.158946981,-120.13,-268.44,-29.48,-4765,14228,0,-12.83419773,358,0,0,1,0,
1670359907986.00,-1.019158041,0.11275842747924261,0.4590621387939357,-129.14,-234.88,3.36,-3942,14228,0,-10.65835667,360,0,0,1,0,
1670359907993.00,-1.049279767,-0.097164605,0.3991772881188037,-130.65,-209.1,17.01,-3942,14228,0,-10.65835667,362,0,0,1,0,
1670359908002.00,-0.899410777,-0.627090619,0.16929168215015233,-218.57,-118.35,26.68,-2403,14228,0,-6.589560318,364,0,0,1,0,
1670359908009.00,-0.869551512,-0.357019103,0.6494044319545235,-278.18,-68,30.73,-2403,14228,0,-6.589560318,366,0,0,1,0,
1670359908019.00,-0.759702042,-0.00694941,0.339514499,-284.81,-12.85,29.76,24,14228,0,-0.173076405,368,0,0,1,0,
1670359908026.00,-0.509862103,0.3431192186509412,-0.090379312,-279.07,49.71,17.65,24,14228,0,-0.173076405,370,0,0,1,1,
1670359908035.00,0.05996884,0.9231875349375712,-0.60027829,-280.71,107,19.01,5119,14228,0,13.297045364397434,372,0,0,1,1,
1670359908042.00,0.5797914762137988,1.4032561233228062,-0.990183679,-274.45,118.98,24.47,5119,14228,0,13.297045364397434,374,0,0,1,1,
1670359908052.00,0.9296064759007836,2.053325204470127,-0.760096511,-211.07,-33.08,66.05,16276,14228,0,42.79383605763347,376,0,0,1,1,
1670359908059.00,0.6194143195858038,2.1033944310617527,-0.210017531,-195,-83.22,65.43,16276,14228,0,42.79383605763347,378,0,0,0,1,
1670359908069.00,-0.680784755,1.1834627461007057,-0.199947226,-74.37,-2.85,95.02,28333,14228,0,74.67003982104181,380,0,0,0,1,
1670359908076.00,-0.47099063,0.7435284013404602,-0.439885924,76.9,127.9,96.21,28333,14228,0,74.67003982104181,382,0,0,0,1,
1670359908085.00,-0.441203114,0.3135891283599967,-0.139833834,129.65,163.57,68.4,27256,14228,0,71.82267551373562,384,0,0,0,1,
1670359908092.00,-0.72142183,0.353642337,-0.349791051,175.38,147.76,70.86,27256,14228,0,71.82267551373562,386,0,0,0,1,
1670359908102.00,-0.851646175,0.18368524591725877,-1.129757537,250.63,209.1,29.68,25705,14228,0,67.72215365613867,388,0,0,0,1,
1670359908109.00,-1.031875277,0.14371495,-2.989732992,277.8,285.63,-22.03,25705,14228,0,67.72215365613867,390,0,0,0,0,
1670359908119.00,-0.682107928,-0.226271535,-2.509716544,187.77,285.51,-1.99,27282,14228,0,71.89141411,392,1,0,0,0,
1670359908126.00,-0.872342578,-0.586277207,-2.249706447,117.79,263.89,62.99,27282,14228,0,71.89141411,394,1,0,0,0,
1670359908135.00,0.3674226319761442,-0.916304964,-1.089700004,93.81,205.59,122.91,32421,14228,0,85.47786274422448,396,1,0,0,0,
1670359908142.00,0.9171897219882983,-1.236357478,0.12030625385246507,87.78,177.04,121.28,32421,14228,0,85.47786274422448,398,1,0,0,0,
1670359908152.00,0.5469606578475484,-1.996437045,4.030316129824077,139.22,92.53,-1.19,38058,14228,0,100.3809199404037,400,1,0,0,0,
1670359908159.00,-0.373262792,-2.306545414,2.3703331139544788,208.07,97.34,-34.24,38058,14228,0,100.3809199404037,402,1,0,0,0,
1670359908169.00,0.29652098637123536,-1.106683632,0.8903598494405123,261.36,18.88,29.85,36169,14228,0,95.38679628534204,404,1,0,0,0,
1670359908176.00,0.046313557,-0.816852037,0.5203981178482231,234.52,40.12,55.32,36169,14228,0,95.38679628534204,406,1,0,0,0,
1670359908185.00,0.006116458,0.072949554,1.0104491533707545,143.94,90.09,108.94,24912,14228,0,65.62562636208686,408,1,0,0,0,
1670359908192.00,0.16593119335490686,0.422721599,1.3905138288799839,107.89,-41.17,158.72,24912,14228,0,65.62562636208686,410,1,1,0,0,
1670359908202.00,0.33575923152945203,-0.217535383,0.3305926449315126,165.29,-108.94,89.73,17405,14228,0,45.778677564549625,412,1,1,0,0,
1670359908209.00,0.37560197050136424,-0.367820891,0.090685745,140.24,-124.15,-18.8,17405,14228,0,45.778677564549625,414,1,1,0,0,
1670359908219.00,1.1054606764239967,-0.018134402,-0.249206944,117.14,-112.35,-97.88,11460,14228,0,30.061332339911434,416,0,1,0,0,
1670359908226.00,1.6153363710253241,-0.208475316,0.45091443805273423,121.62,-77.14,-104.72,11460,14228,0,30.061332339911434,418,0,1,0,0,
1670359908235.00,2.895229631380042,-1.108842942,0.1710497210208621,117.23,-75.95,-94.64,6345,14228,0,16.538334724432154,420,0,1,0,0,
1670359908242.00,2.1851403298142276,-1.019236408,-0.078801325,137,0.53,-108.65,6345,14228,0,16.538334724432154,422,0,1,0,0,
1670359908252.00,0.5450674850443584,-1.569654519,1.291360983,72.16,-52.64,-131.27,1846,14228,0,4.643913165870809,424,0,1,0,0,
1670359908259.00,-0.004990595,-1.670095608,1.221536148952362,12.68,-54.59,-147.9,1846,14228,0,4.643913165870809,426,0,1,0,0,
1670359908269.00,-0.545035959,-1.520557442,1.0717233415046592,-78.47,-28.81,-166.79,-1263,14228,0,-3.575637095,428,0,1,0,0,
1670359908276.00,-0.655070694,-0.841037183,0.49192129908673454,-101.25,-18.24,-169.68,-1263,14228,0,-3.575637095,430,0,0,0,0,
1670359908285.00,-0.585096738,-0.091531474,-0.287871596,-91.04,9.08,-168.32,-4508,14228,0,-12.15474311,432,0,0,0,0,
1670359908292.00,-0.185115815,0.5079633595869073,-0.737657125,-118.44,57.39,-137.65,-4508,14228,0,-12.15474311,434,0,0,0,0,
1670359908302.00,-0.035129461,0.7974510551953302,-0.357437021,-185.6,110.5,-98.74,-5663,14228,0,-15.20832322,436,0,0,0,0,
1670359908309.00,0.21486088677290496,0.5769352114894377,-0.247212845,-195.62,41.31,-70.32,-5663,14228,0,-15.20832322,438,0,0,0,0,
1670359908319.00,0.12485380626365268,0.7764191822477817,-0.176985999,-161.72,-73.48,-81.21,-5792,14228,0,-15.54937242,440,0,0,0,0,
1670359908326.00,-0.08515216,0.9959060403782509,-0.09675777,-147.15,-126.97,-88.15,-5792,14228,0,-15.54937242,442,0,0,0,0,
1670359908335.00,-0.305158492,0.6853985486918572,0.08347062,-123.23,-228.45,-75.22,-5747,14228,0,-15.43040177,444,0,0,1,0,
1670359908342.00,-0.55516663,0.36489915162669195,0.063697979,-128.52,-246.07,-69.97,-5747,14228,0,-15.43040177,446,0,0,1,0,
1670359908352.00,-1.365177876,-0.435589953,0.29392310247030967,-154.44,-201.2,-31.01,-5516,14228,0,-14.81968575,448,0,0,1,0,
1670359908359.00,-1.47519324,-0.566066658,0.38414473033874924,-190.39,-158.19,-9.27,-5516,14228,0,-14.81968575,450,0,0,1,0,
1670359908369.00,-1.295213289,-0.75652877,0.31436150540699714,-206.1,-75.7,30.21,-5555,14228,0,-14.92279365,452,0,0,1,0,
1670359908376.00,-0.865238065,-0.826973878,0.044571949,-219.35,-21.93,45.99,-5555,14228,0,-14.92279365,454,0,0,1,0,
1670359908385.00,-0.285267143,-0.607399294,-0.345225506,-238.08,13.75,38.51,-3906,14228,0,-10.56318014,456,0,0,1,0,
1670359908392.00,0.044700224,0.07219794,-0.725032421,-261.93,55.61,13.27,-3906,14228,0,-10.56318014,458,0,0,1,0,
1670359908402.00,0.49466492882148305,0.6818209543058652,-1.184850218,-280.26,80.13,13.13,-4107,14228,0,-11.0945824,460,0,0,1,1,
1670359908409.00,0.7246278401024232,1.781472833236604,-1.204680027,-286.7,76,13.11,-4107,14228,0,-11.0945824,462,0,0,1,1,
1670359908419.00,0.42458967177695656,2.8911563192923566,-0.664522585,-286.72,19.09,31.28,-3076,14228,0,-8.368832536,464,0,0,0,1,
1670359908426.00,0.17455093232199023,3.2008734497777747,-0.394378234,-283.18,-12.74,49.44,-3076,14228,0,-8.368832536,466,0,0,0,1,
1670359908435.00,-0.785488016,2.540625252,-0.274247022,-87.32,57.45,85.06,-1617,14228,0,-4.51153957,468,0,0,0,1,
1670359908442.00,-1.055526792,2.0704116357706557,-0.244128808,-7.83,129.01,102,-1617,14228,0,-4.51153957,470,0,0,0,1,
1670359908452.00,-1.295564788,0.7802315139467677,-0.244023323,80.7,216.11,150.08,-3114,14228,0,-8.469296643,472,0,0,0,1,
1670359908459.00,-1.225601005,0.5200830649337378,-0.48393019,139.2,214.28,179.29,-3114,14228,0,-8.469296643,474,0,0,0,1,
1670359908469.00,-0.785633983,0.17996402419064894,-0.803848892,189.39,214.75,165.56,-4155,14228,0,-11.22148443,476,0,0,0,1,
1670359908476.00,0.054338156,0.359871893,-1.253778701,186.07,219.76,111.4,-4155,14228,0,-11.22148443,478,0,0,0,1,
1670359908485.00,0.044317552,0.3798040287170648,-1.623718549,144.12,242.95,34.18,-4270,14228,0,-11.52552054,480,1,0,0,0,
1670359908492.00,-0.465693545,0.3297576582036446,-2.283666866,121.76,204.92,22.61,-4270,14228,0,-11.52552054,482,1,0,0,0,
1670359908502.00,-0.445692818,0.23972987194183962,-2.543621405,106,160.65,58.19,-3901,14228,0,-10.54996118,484,1,0,0,0,
1670359908509.00,-0.085677844,-0.130282356,-0.263579124,87.9,192.4,58.53,-3901,14228,0,-10.54996118,486,1,0,0,0,
1670359908519.00,1.2443538943697379,-0.300282111,2.6964636292615762,174.69,221.84,27.04,-4526,14228,0,-12.20233137,488,1,0,0,0,
1670359908526.00,1.5844048159695887,-0.620272443,2.9165105131884212,257.66,170.27,-4.51,-4526,14228,0,-12.20233137,490,1,0,0,0,
1670359908535.00,1.094476989658041,-0.960256266,1.816564537324508,286.68,54.2,-91.48,-3839,14228,0,-10.38604606,492,1,0,0,0,
1670359908542.00,0.6845719984697161,-1.140236243,1.5166277929651848,286.68,35.89,-66.19,-3839,14228,0,-10.38604606,494,1,0,0,0,
1670359908552.00,0.1946909993849933,-0.970214687,0.33670158161541214,286.68,-91.07,7.61,-3712,14228,0,-10.05028444,496,1,0,0,0,
1670359908559.00,-0.03516512,-0.800193511,0.5367866768550322,273.47,-161.8,71.79,-3712,14228,0,-10.05028444,498,1,1,0,0,
1670359908569.00,-0.834995574,-0.460174254,0.6368835358171362,153.44,-116.79,67.31,-4603,14228,0,-12.40590338,500,0,1,0,0,
1670359908576.00,-0.134799519,-0.59015815,0.16699239617831077,108.55,-18.32,31.82,-4603,14228,0,-12.40590338,502,0,1,0,0,
1670359908585.00,0.2554240180045816,-0.540146188,-0.472886667,95.99,127.91,-30.96,-5078,14228,0,-13.66170472,504,0,1,0,0,
1670359908592.00,0.9156760652650554,-1.190139118,0.13724636512551983,109.38,175.9,-71.15,-5078,14228,0,-13.66170472,506,0,1,0,0,
1670359908602.00,1.6059575167872753,-1.280137389,0.027391532326050398,139.35,25.69,-109.44,-5797,14228,0,-15.56259138,508,0,1,0,0,
1670359908609.00,2.3062688893424936,-1.40014104,0.2675488893873361,175.04,-12.56,-105.05,-5797,14228,0,-15.56259138,510,0,1,0,0,
1670359908619.00,2.0766100797551443,-2.020149598,1.0777184310381644,45.68,58.58,-28.92,-5624,14228,0,-15.10521532,512,0,1,0,0,
1670359908626.00,1.4569802131313745,-2.180161964,1.417899962925188,-39.93,68.29,-91.81,-5624,14228,0,-15.10521532,514,0,1,0,0,
1670359908635.00,0.3873776786395135,-1.220176321,1.4380929247066816,-92.06,11.18,-256.46,-5747,14228,0,-15.43040177,516,0,1,0,0,
1670359908642.00,0.24780033787761602,-0.94019014,1.1682962570394686,-100.35,-25.77,-255.7,-5747,14228,0,-15.43040177,518,0,1,0,0,
1670359908652.00,-0.191754223,-0.360200342,0.20850839526662981,-85.12,-72.57,-215.85,-6182,14228,0,-16.58045142,520,0,0,0,0,
1670359908659.00,-0.78128849,0.22979650123577267,-0.921272577,-67.5,-110.11,-170.55,-6182,14228,0,-16.58045142,522,0,0,0,0,
1670359908669.00,-0.690804861,0.6498039554921592,-1.551048628,-74.37,-66.73,-119.07,-6311,14228,0,-16.92150063,524,0,0,0,0,
1670359908676.00,-0.120305532,0.9598255234871234,-1.210821456,-162.43,4.88,-96.16,-6311,14228,0,-16.92150063,526,0,0,0,0,
1670359908685.00,-0.239792494,1.2998644684171117,-0.490592303,-261.82,3.93,-110.22,-6222,14228,0,-16.68620311,528,0,0,0,0,
1670359908692.00,-0.109267606,2.009923659461481,0.3896379829637443,-241.42,-94.86,-117.65,-6222,14228,0,-16.68620311,530,0,0,0,0,
1670359908702.00,0.24126734340339231,2.1200054059022304,0.27986874318329724,-153.41,-156.53,-85.4,-6003,14228,0,-16.1072126,532,0,0,0,0,
1670359908709.00,0.3218105775686688,1.2301113204178815,0.04009931,-116.77,-156.85,-65.97,-6003,14228,0,-16.1072126,534,0,0,0,0,
1670359908719.00,0.11236026474091867,0.27024233601108033,-0.009671055,-112.7,-173.29,-23.23,-6162,14228,0,-16.52757557,536,0,0,0,1,
1670359908726.00,-0.037085506,-0.259601081,0.100556862,-131.6,-171.7,3.29,-6162,14228,0,-16.52757557,538,0,0,0,1,
1670359908735.00,0.1534712981276115,-0.91941863,0.440782246,-172.1,-142.76,80.1,-6165,14228,0,-16.53550695,540,0,0,0,1,
1670359908742.00,0.10402868015950295,-0.74920992,0.5810042078881881,-212,-68.64,81.91,-6165,14228,0,-16.53550695,542,0,0,0,1,
1670359908752.00,0.074584608,-0.668974313,0.3912217159824753,-215.88,-65.97,87.82,-5002,14228,0,-13.46077651,544,0,0,0,1,
1670359908759.00,-0.044862988,-0.358710882,0.031433564,-230,-103.64,82.41,-5002,14228,0,-13.46077651,546,0,0,0,1,
1670359908769.00,-0.344316188,0.391581522,-0.388361574,-255.48,-152.79,80.9,-4369,14228,0,-11.78725598,548,0,0,1,1,
1670359908776.00,-0.44377703,0.7819041279642626,-0.668165028,-283.8,-180.22,94.53,-4369,14228,0,-11.78725598,550,0,0,1,1,
1670359908785.00,-0.533247441,1.092258054662055,-0.98797799,-286.72,-179.44,99.51,-2494,14228,0,-6.830145417,552,0,0,1,1,
1670359908792.00,-0.312729186,1.5426441258877286,-0.907801395,-286.33,-143.01,107.49,-2494,14228,0,-6.830145417,554,0,0,1,1,
1670359908802.00,-0.022223864,1.7030627178102355,-0.407635851,-232.62,-66.19,99.37,-2965,14228,0,-8.07537159,556,0,0,1,0,
1670359908809.00,0.048267036,1.8835136303748305,-0.277481669,-172.21,-28.44,90.09,-2965,14228,0,-8.07537159,558,0,0,1,0,
1670359908819.00,-0.021257928,2.6039959746477472,-0.12733895,-8.45,26.84,91.74,-736,14228,0,-2.182358553,560,0,0,1,0,
1670359908826.00,-0.070800194,2.404508051667832,-0.04720768,21.74,8.56,110.32,-736,14228,0,-2.182358553,562,0,0,1,0,
1670359908835.00,-0.330361185,0.6850472854098977,-0.757087763,103.83,-27.37,115.94,-805,14228,0,-2.364780222,564,0,0,1,0,
1670359908842.00,-0.519942268,0.065610363,-1.016978974,190.85,-51.95,78.49,-805,14228,0,-2.364780222,566,0,0,1,0,
1670359908852.00,-0.909544675,-0.103806439,-0.986880843,220.03,-56.84,44.75,2378,14228,0,6.050410669572662,568,0,0,0,0,
1670359908859.00,-1.5391694,0.1567930238056576,-0.886792548,218.01,-6.15,45.88,2378,14228,0,6.050410669572662,570,0,0,0,0,
1670359908869.00,-2.018817035,0.13740486808852737,-1.226712884,213.71,90.04,60.5,845,14228,0,1.9974770733791645,572,1,0,0,0,
1670359908876.00,-2.128487584,-0.221974812,-1.946640213,189.58,156.56,76.88,845,14228,0,1.9974770733791645,574,1,0,0,0,
1670359908885.00,-1.928180311,-0.351349924,-2.316572353,172.43,266.24,47.78,3672,14228,0,9.471477906020402,576,1,0,0,0,
1670359908892.00,-1.147893702,-0.280724319,-1.546506414,177.43,286.52,0.5,3672,14228,0,9.471477906020402,578,1,0,0,0,
1670359908902.00,1.0123743980963262,-0.37010174,1.9935611690727568,154.55,286.68,-4.95,10569,14228,0,27.70571340044085,580,1,0,0,0,
1670359908909.00,1.7626264160781462,-0.73948579,4.743634155434945,128.93,286.68,-8.53,10569,14228,0,27.70571340044085,582,1,0,0,0,
1670359908919.00,0.3928646048703962,-1.958879859,0.7637157258134478,286.68,141.98,-35.67,13406,14228,0,35.20615216,584,1,0,0,0,
1670359908926.00,0.1630908377471123,-2.068286936,0.49380810214442905,286.68,38.15,0.29,13406,14228,0,35.20615216,586,1,0,0,0,
1670359908935.00,0.35330670300182526,-2.137709371,1.3439127863006695,267.18,-60.7,34.43,13575,14228,0,35.65295305481636,588,1,1,0,0,
1670359908942.00,-0.386486344,-1.62714874,1.4540308413999168,210.99,-20.46,96.13,13575,14228,0,35.65295305481636,590,1,1,0,0,
1670359908952.00,-0.686286872,-0.646605864,1.0341628902663773,147.04,1.07,159.68,13718,14228,0,36.03101535374373,592,1,1,0,0,
1670359908959.00,-0.08609336,-0.106080989,0.9543090647512642,84.16,78.21,160.9,13718,14228,0,36.03101535374373,594,0,1,0,0,
1670359908969.00,0.38409584552913867,0.19442595843484722,-0.525530919,73.39,82.18,57.24,7601,14228,0,19.85893785347261,596,0,1,0,0,
1670359908976.00,1.2642824171436036,0.034915150731537364,0.37464241700505785,84.41,161.87,-30.71,7601,14228,0,19.85893785347261,598,0,1,0,0,
1670359908985.00,3.8244677754311835,-0.614613229,0.12482846638574116,68.86,-12.43,-77.36,5482,14228,0,14.256741969366931,600,0,1,0,0,
1670359908992.00,2.354652675019235,-0.76415894,-1.564973377,91.05,-67.74,-119.4,5482,14228,0,14.256741969366931,602,0,1,0,0,
1670359909002.00,1.0548369012529244,-1.143721553,1.4552363570224682,96.65,-47.64,-196.97,91,14228,0,0.004057679,604,0,1,0,0,
1670359909009.00,-0.284980624,-1.663300308,1.8254571607889358,-30.03,-4.85,-148.88,91,14228,0,0.004057679,606,0,1,0,0,
1670359909018.00,-0.544801426,-1.362893982,0.8256882588442767,-81.07,12.33,-135.69,-1718,14228,0,-4.778562592,608,0,1,0,0,
1670359909025.00,-0.394627084,-0.662500818,-0.074071584,-89.14,34.59,-172.49,-1718,14228,0,-4.778562592,610,0,1,0,0,
1670359909035.00,0.00554094,0.19788139977911118,-0.70382392,-124.22,81.69,-157.67,-4041,14228,0,-10.92009211,612,0,0,0,0,
1670359909042.00,0.3757013010828684,0.8882551238764258,-0.293570341,-152.89,102.77,-136.58,-4041,14228,0,-10.92009211,614,0,0,0,0,
1670359909052.00,0.6358526482440477,0.7386227687208234,0.086687681,-198.94,52.26,-77.55,-4622,14228,0,-12.45613543,616,0,0,0,0,
1670359909059.00,0.5259935091647043,0.45898652787155214,-0.243051213,-175.11,-10.86,-71.36,-4622,14228,0,-12.45613543,618,0,0,0,0,
1670359909068.00,-0.283877767,0.6493483288085049,-0.582788309,-104.85,-159.49,-88.02,-4319,14228,0,-11.65506636,620,0,0,0,0,
1670359909075.00,-0.433762944,0.7897098499966348,-0.552524787,-102.52,-204.88,-83.93,-4319,14228,0,-11.65506636,622,0,0,0,0,
1670359909085.00,-0.513663754,0.6000725147551604,-0.06226166,-120.68,-255.54,-65.56,-3978,14228,0,-10.75353319,624,0,0,0,0,
1670359909092.00,-0.883581778,0.49043747988911957,0.11800020957132895,-133.37,-258.67,-70.97,-3978,14228,0,-10.75353319,626,0,0,0,0,
1670359909102.00,-0.943518355,0.44080565749334916,0.42826001446668877,-130.94,-207.61,-36.64,-2741,14228,0,-7.483162115,628,0,0,1,0,
1670359909109.00,-0.533474526,0.021177762,0.27851690086422015,-121,-174.48,17.67,-2741,14228,0,-7.483162115,630,0,0,1,0,
1670359909118.00,-0.263451026,-0.458445612,0.018769912,-144.12,-155.47,41.27,-2848,14228,0,-7.766047891,632,0,0,1,0,
1670359909125.00,-0.263448365,-0.638063868,0.2890179956842374,-222.76,-131.15,38.96,-2848,14228,0,-7.766047891,634,0,0,1,0,
1670359909135.00,-0.263466901,-0.517676279,0.35926001914542244,-281.98,-96.2,41.4,-2125,14228,0,-5.854586058,636,0,0,1,0,
1670359909142.00,-0.403506879,-0.217281918,-0.210505232,-286.49,-69.88,41.58,-2125,14228,0,-5.854586058,638,0,0,1,1,
1670359909152.00,-0.513568416,0.8631202951270691,-0.700279017,-286.72,32.96,32.16,170,14228,0,0.212917271,640,0,0,1,1,
1670359909159.00,-0.423651476,1.4135314164565411,-0.760062518,-286.72,61.26,34.9,170,14228,0,0.212917271,642,0,0,1,1,
1670359909168.00,0.006244143,1.913952220752214,-0.649856708,-284.92,74.9,69.84,7897,14228,0,20.64150037432929,644,0,0,1,1,
1670359909175.00,0.076118765,2.124382946123663,-0.769662288,-214.16,10.74,74.01,7897,14228,0,20.64150037432929,646,0,0,1,1,
1670359909185.00,-0.404027227,2.5748231055344872,-0.269479683,-134.93,-23.89,69.72,17082,14228,0,44.92473265158778,648,0,0,0,1,
1670359909192.00,-0.534193401,2.075271359177006,0.22069090109581443,-48.33,56.67,102.15,17082,14228,0,44.92473265158778,650,0,0,0,1,
1670359909202.00,-0.124379213,0.9657254911008353,-0.269150624,81.62,127.17,122.75,14637,14228,0,38.46066047761968,652,0,0,0,1,
1670359909209.00,-0.034583991,0.076182567,-0.559004293,132.46,146.54,114.98,14637,14228,0,38.46066047761968,654,0,0,0,1,
1670359909218.00,-0.244806968,-0.303360765,-0.598870042,159.02,119.97,102.55,13216,14228,0,34.70383161904763,656,0,0,0,1,
1670359909225.00,-0.375047314,-0.212907977,-0.368747638,197.48,115.2,85.96,13216,14228,0,34.70383161904763,658,0,0,0,1,
1670359909235.00,-0.985304094,0.10753748714145703,-0.898636632,235.51,149.56,55.34,16569,14228,0,43.56846720158957,660,0,0,0,0,
1670359909242.00,-1.365576158,-0.042027764,-1.758536315,249.25,168.23,45.03,16569,14228,0,43.56846720158957,662,0,0,0,0,
1670359909252.00,-2.015861979,-0.54160709,-2.588445552,221.76,268.7,19.9,19662,14228,0,51.74571678608173,664,1,0,0,0,
1670359909259.00,-1.87615947,-0.601203785,-2.148362533,204.93,286.5,24.28,19662,14228,0,51.74571678608173,666,1,0,0,0,
1670359909268.00,0.27353409703288656,-1.200820965,-1.338284616,163.54,286.68,81.72,24139,14228,0,63.58197491403887,668,1,0,0,0,
1670359909275.00,1.3832219070989322,-1.260461454,-0.338208392,103.61,281.06,139.3,24139,14228,0,63.58197491403887,670,1,0,0,0,
1670359909285.00,2.3929071424569526,-2.020127644,3.541869969448947,99.66,170.54,20.04,33882,14228,0,89.34044329480419,672,1,0,0,0,
1670359909292.00,0.7025925419311148,-1.889821358,2.4619541255382646,210.3,146.57,-52.59,33882,14228,0,89.34044329480419,674,1,0,0,0,
1670359909302.00,0.35228026253615197,-0.929543745,1.3820469882463593,269.9,25.52,-18.23,30017,14228,0,79.12218605456422,676,1,0,0,0,
1670359909309.00,-0.49802794,-0.709295331,0.41215060850230306,239.59,45.21,-15.18,30017,14228,0,79.12218605456422,678,1,0,0,0,
1670359909318.00,-0.49833043,-0.309076185,0.8622664338179403,152.07,67.47,40,21824,14228,0,57.46159573909565,680,1,0,0,0,
1670359909325.00,-0.358625491,0.4111138911089022,1.512395526987393,108.75,-24.33,99.49,21824,14228,0,57.46159573909565,682,1,1,0,0,
1670359909335.00,-0.098911254,0.12127519221397041,0.6925385780127751,150.24,-55.44,78.74,15003,14228,0,39.42828845948975,684,1,1,0,0,
1670359909342.00,-0.039185721,0.041407986,0.45269587387274685,160.87,-58.39,36.74,15003,14228,0,39.42828845948975,686,0,1,0,0,
1670359909352.00,1.1705531395172097,0.27151247848721705,0.46286736880174384,129.84,19.94,-53.71,6778,14228,0,17.683096790415053,688,0,1,0,0,
1670359909359.00,1.9303072234024414,-0.278411174,0.9630527722723982,112.18,33.5,-38.09,6778,14228,0,17.683096790415053,690,0,1,0,0,
1670359909368.00,3.150077984105987,-1.528362795,-0.95674841,152,3.63,-103,4289,14228,0,11.102697755238529,692,0,1,0,0,
1670359909375.00,2.1698661024985038,-1.408342009,0.303463213,104.49,81.14,-142.94,4289,14228,0,11.102697755238529,694,0,1,0,0,
1670359909385.00,1.059671323343632,-2.018348,1.7336869966052464,-3.95,-16.44,-127.17,498,14228,0,1.0800811452127306,696,0,1,0,0,
1670359909392.00,0.19949259356116197,-2.278379321,1.7139221038687382,-69.51,-43.28,-166.37,498,14228,0,1.0800811452127306,698,0,1,0,0,
1670359909402.00,-0.370671604,-1.728433777,1.0941672351384293,-77.15,-29.36,-171.99,-2047,14228,0,-5.648370259,700,0,1,0,0,
1670359909409.00,-0.570822926,-0.868508399,0.3744205349151748,-99.77,-44.74,-157.95,-2047,14228,0,-5.648370259,702,0,0,0,0,
1670359909418.00,-0.640962945,0.061400401,-0.235320262,-118.93,-7.69,-140.63,-4876,14228,0,-13.12765868,704,0,0,0,0,
1670359909425.00,-0.401093044,0.7412965486742891,-0.495057592,-123.22,20.3,-131.44,-4876,14228,0,-13.12765868,706,0,0,0,0,
1670359909435.00,-0.101214401,1.0911839860398107,-0.624793857,-162.85,93.83,-67.62,-5677,14228,0,-15.24533631,708,0,0,0,0,
1670359909442.00,0.028671953678912676,1.0410664266919452,-0.624531293,-174.76,99.31,-54.41,-5677,14228,0,-15.24533631,710,0,0,0,0,
1670359909452.00,0.41856504856956966,1.0309472154104966,-0.504271911,-162.63,-9.43,-66.14,-5366,14228,0,-14.4231169,712,0,0,0,0,
1670359909459.00,0.6784638681060068,1.0908292837602835,-0.434017494,-134.23,-52.72,-72.35,-5366,14228,0,-14.4231169,714,0,0,0,0,
1670359909468.00,0.9283672433045196,0.9507151453991531,-0.203769622,-140.91,-150.32,-66.63,-5549,14228,0,-14.90693089,716,0,0,0,1,
1670359909475.00,0.43827375762084136,0.17060692281245765,0.086470273,-157.27,-244.84,-57.99,-5549,14228,0,-14.90693089,718,0,0,0,1,
1670359909485.00,-0.041818265,-0.429493545,0.36670082689728967,-182.82,-283.9,-10.99,-4982,14228,0,-13.40790066,720,0,0,0,1,
1670359909492.00,-0.361910663,-0.599584507,0.6069206442949857,-204.2,-211.93,39.41,-4982,14228,0,-13.40790066,722,0,0,0,1,
1670359909502.00,-0.452005289,-1.019664107,0.2871282019949261,-208.32,-153.56,82.83,-4103,14228,0,-11.08400723,724,0,0,0,1,
1670359909509.00,-0.402103889,-0.819730235,0.10732181633873672,-239.47,-139.35,90.3,-4103,14228,0,-11.08400723,726,0,0,0,1,
1670359909518.00,-0.682208053,-0.199780472,-0.252500313,-267.73,-140.01,70.68,-3928,14228,0,-10.62134358,728,0,0,1,1,
1670359909525.00,-0.772319165,0.140187856,-0.452340011,-277.35,-131.21,67.2,-3928,14228,0,-10.62134358,730,0,0,1,1,
1670359909535.00,-1.042438354,1.410177512132297,-0.742199018,-286.72,-73.9,69.11,-3633,14228,0,-9.841424847,732,0,0,1,1,
1670359909542.00,-1.042566425,1.7001910945611742,-0.79207889,-286.72,-49.66,79.31,-3633,14228,0,-9.841424847,734,0,0,1,1,
1670359909552.00,0.29729616315120844,1.8302307670184417,-1.051980916,-284.69,-28.83,112.26,-3802,14228,0,-10.28822575,736,0,0,1,0,
1670359909559.00,0.8071491816173278,1.800298066869579,-1.201906046,-239.93,-27.6,90.74,-3802,14228,0,-10.28822575,738,0,0,1,0,
1670359909568.00,0.966992382,2.3403938147994343,-1.151854826,-171.28,-25.65,24.59,-2905,14228,0,-7.916744052,740,0,0,1,0,
1670359909575.00,0.8468252748436924,2.6705180369662336,-0.111827381,-92.11,-34.94,34.61,-2905,14228,0,-7.916744052,742,0,0,1,0,
1670359909585.00,0.21664704671191848,2.270669860955316,0.3581764858644042,53.59,-49.85,57.25,-3788,14228,0,-10.25121265,744,0,0,1,0,
1670359909592.00,-0.673543363,1.0708474830557473,-0.161842898,176.19,-39.22,94.04,-3788,14228,0,-10.25121265,746,0,0,1,0,
1670359909602.00,-1.503747052,0.24104832209209015,-0.691885187,219.04,-26.82,112.96,-4183,14228,0,-11.29551061,748,0,0,1,0,
1670359909609.00,-2.003964858,-0.00873068,-1.001949949,234.81,-19.03,110.6,-4183,14228,0,-11.29551061,750,0,0,1,0,
1670359909618.00,-2.124197082,0.031507218,-1.032036517,233.68,29,95.51,-4826,14228,0,-12.99546906,752,0,0,0,0,
1670359909625.00,-2.16444329,0.081758704,-1.132143867,228.45,68.08,81.1,-4826,14228,0,-12.99546906,754,0,0,0,0,
1670359909635.00,-1.974702228,0.032020447,-1.852270548,182.94,176,55.43,-4569,14228,0,-12.31601444,756,1,0,0,0,
1670359909642.00,-1.874971812,-0.117710899,-2.52241456,169.25,233.33,53.73,-4569,14228,0,-12.31601444,758,1,0,0,0,
1670359909652.00,-0.665249193,-0.327438676,-1.712573196,143.07,286.68,68.82,-3222,14228,0,-8.754826211,760,1,0,0,0,
1670359909659.00,0.3244690729542007,-0.487166167,-0.262742978,99.22,286.68,92.06,-3222,14228,0,-8.754826211,762,1,0,0,0,
1670359909668.00,2.0141866791941236,-0.466896535,3.2270800679118077,138.25,286.68,9.85,-1577,14228,0,-4.405787878,764,1,0,0,0,
1670359909675.00,1.863907137744784,-1.206632758,2.8668997993482703,251.61,174.11,-71.8,-1577,14228,0,-4.405787878,766,1,0,0,0,
1670359909685.00,0.6336334413840371,-1.496377529,1.326719338538012,286.64,46.51,-84.78,-414,14228,0,-1.331057433,768,1,0,0,0,
1670359909692.00,0.5033680191371631,-1.616133114,0.3365409230047762,286.67,1.08,-31.14,-414,14228,0,-1.331057433,770,1,0,0,0,
1670359909702.00,0.023112918,-1.255901228,0.976366167,226.21,-15.23,12.93,-467,14228,0,-1.471178424,772,1,0,0,0,
1670359909709.00,-0.747129983,-0.525683028,0.7361963159023945,163.07,-55.86,22.89,-467,14228,0,-1.471178424,774,1,1,0,0,
1670359909718.00,-0.857358779,0.014520767398302391,0.076032325,63.44,-41.6,29.86,-2368,14228,0,-6.497027587,776,0,1,0,0,
1670359909725.00,-0.52757137,0.14470968054351152,-0.334125063,45.4,14.14,19.64,-2368,14228,0,-6.497027587,778,0,1,0,0,
1670359909735.00,0.23223459386665568,-0.175116696,0.085724813,47.03,276.26,-2.75,-4019,14228,0,-10.86192867,780,0,1,0,0,
1670359909742.00,1.6220615821808506,-1.014958737,1.585582593540902,36.89,257.26,-5.39,-4019,14228,0,-10.86192867,782,0,1,0,0,
1670359909752.00,2.3419118829568744,-1.124816676,0.8154487576380303,102.53,77.79,-81.48,-3964,14228,0,-10.7165201,784,0,1,0,0,
1670359909759.00,2.421787237604627,-1.264690437,0.9153234427415919,165.65,110.29,-60.01,-3964,14228,0,-10.7165201,786,0,1,0,0,
1670359909768.00,2.0416885769000084,-2.19457949,1.4752063759098848,55.71,147.07,-61.16,-4261,14228,0,-11.50172641,788,0,1,0,0,
1670359909775.00,1.1816159619219881,-2.254482701,1.6450968381079194,3.84,79.32,-140.27,-4261,14228,0,-11.50172641,790,0,1,0,0,
1670359909785.00,0.44156871927748587,-1.504398194,1.0349935879318286,-9.58,32.53,-201.51,-4956,14228,0,-13.33916206,792,0,1,0,0,
1670359909792.00,-0.058454308,-0.534323338,0.2048948594080491,-47.96,-0.98,-196.52,-4956,14228,0,-13.33916206,794,0,0,0,0,
1670359909802.00,-0.458454494,-0.064254945,-0.835201469,-66.18,-5.64,-173.61,-5671,14228,0,-15.22947355,796,0,0,0,0,
1670359909809.00,-0.788433214,0.455810455,-1.495297573,-70.19,-5.54,-160.05,-5671,14228,0,-15.22947355,798,0,0,0,0,
1670359909818.00,-0.178391694,0.6858763692835422,-1.155395371,-136.62,41.92,-80.7,-5770,14228,0,-15.49120899,800,0,0,0,0,
1670359909825.00,0.10166901919907184,0.7759461707668724,-0.835496344,-188.07,65,-73.52,-5770,14228,0,-15.49120899,802,0,0,0,0,
1670359909835.00,0.25174797804494364,1.3960229719652446,0.014398451756949052,-260.44,44.12,-86.16,-5913,14228,0,-15.86927129,804,0,0,0,0,
1670359909842.00,0.36184422449833964,1.6661095091020957,0.1542882348738972,-240.2,-71.57,-91.63,-5913,14228,0,-15.86927129,806,0,0,0,0,
1670359909852.00,0.3319567123524896,2.0962079964539226,0.004172317,-149.84,-159.44,-77.39,-5568,14228,0,-14.95716295,808,0,0,0,0,
1670359909859.00,0.4520842692032565,1.4763199943722443,-0.095949992,-92.68,-193.87,-33.32,-5568,14228,0,-14.95716295,810,0,0,0,0,
1670359909868.00,0.082225583,0.21644639577531727,-0.076079387,-91.9,-221.47,-13.67,-5333,14228,0,-14.33587176,812,0,0,0,1,
1670359909875.00,-0.117620772,-0.873412378,0.3337834472886997,-125.75,-199.99,44.35,-5333,14228,0,-14.33587176,814,0,0,0,1,
1670359909885.00,-0.077456275,-0.653256034,0.6036377974098386,-171.51,-117.4,80.35,-4718,14228,0,-12.70993949,816,0,0,0,1,
1670359909892.00,-0.107282396,-0.703084123,0.2234828448425144,-184.95,-77.91,102.96,-4718,14228,0,-12.70993949,818,0,0,0,1,
1670359909902.00,-0.267100567,-0.80289593,-0.226682367,-200.59,-86.81,109.31,-4181,14228,0,-11.29022303,820,0,0,0,1,
1670359909909.00,-0.346912157,-0.642690447,-0.296858869,-219.82,-96.78,104.68,-4181,14228,0,-11.29022303,822,0,0,0,1,
1670359909918.00,-0.276718442,0.0875336,-0.137047658,-284.88,-104.4,77.37,-4816,14228,0,-12.96903114,824,0,0,1,1,
1670359909925.00,-0.196520583,0.30777766312474475,-0.147249656,-286.72,-97.76,71.83,-4816,14228,0,-12.96903114,826,0,0,1,1,
1670359909935.00,-0.106319638,1.3880431992565354,-0.697465695,-286.72,-84.44,57.16,-3719,14228,0,-10.06879098,828,0,0,1,1,
1670359909942.00,-0.19611658,1.6883314469929447,-1.007696471,-282.52,-98.98,57.47,-3719,14228,0,-10.06879098,830,0,0,1,0,
1670359909952.00,-0.165912321,2.138643182176554,-1.01794243,-246.3,-110.4,81.68,-2872,14228,0,-7.829498906,832,0,0,1,0,
1670359909959.00,0.1142922891842531,2.278978511619023,-0.578203678,-184.62,-89.4,81.16,-2872,14228,0,-7.829498906,834,0,0,1,0,
1670359909968.00,0.25449642917113824,2.299336734299267,-0.328479986,-70.94,-41.76,61.91,-2793,14228,0,-7.620639315,836,0,0,1,0,
1670359909975.00,0.2446992500443824,1.9197162753829582,-0.488770865,37.97,-31.43,59.5,-2793,14228,0,-7.620639315,838,0,0,1,0,
1670359909985.00,-0.27510016,1.2801147117701137,-0.979075623,109.28,-64.31,69.25,-2932,14228,0,-7.988126444,840,0,0,1,0,
1670359909992.00,-1.254902718,0.6205289036377637,-1.239393317,144.33,-43.56,72.62,-2932,14228,0,-7.988126444,842,0,0,1,0,
1670359910002.00,-2.064709156,0.33095520055172906,-0.899722656,226.93,66.4,91.05,-1157,14228,0,-3.295395112,844,0,0,1,0,
1670359910009.00,-2.104519735,0.3213896425838187,-1.130061933,230.9,129.66,84.27,-1157,14228,0,-3.295395112,846,0,0,0,0,
1670359910019.00,-1.754334025,0.031828093582078554,-1.880409003,211.98,185.35,75.85,1658,14228,0,4.146880213434816,848,1,0,0,0,
1670359910026.00,-1.244150835,-0.467733671,-2.370761181,203.04,261.55,41.47,1658,14228,0,4.146880213434816,850,1,0,0,0,
1670359910036.00,0.086031671,-0.397299863,-0.671115112,186.51,286.66,22.42,10467,14228,0,27.436046585821323,852,1,0,0,0,
1670359910043.00,1.7062156907758383,-1.296874565,1.9185331459649384,167.85,276.22,25.1,10467,14228,0,27.436046585821323,854,1,0,0,0,
1670359910052.00,2.106403356077446,-2.176461571,2.7781876601832214,248.52,228.42,-24.1,18760,14228,0,49.36101613130904,856,1,0,0,0,
1670359910059.00,1.5165963166012597,-2.37606415,1.9478520105242347,284.89,142.16,-65.41,18760,14228,0,49.36101613130904,858,1,0,0,0,
1670359910069.00,-0.363204408,-1.885684826,1.0175289667532013,251.76,-105.43,-34.96,19041,14228,0,50.10392176766284,860,1,0,0,0,
1670359910076.00,-0.542998226,-1.515325289,1.057220554223726,220.81,-111.88,-13.8,19041,14228,0,50.10392176766284,862,1,0,0,0,
1670359910086.00,-1.192784614,0.20501348877663852,0.9369282535421388,168.87,-63.25,40.44,14184,14228,0,37.26302256563295,864,1,0,0,0,
1670359910093.00,-1.372562815,0.5653309760577407,0.8966531211600286,120.68,-42.1,76.54,14184,14228,0,37.26302256563295,866,1,1,0,0,
1670359910102.00,-0.85233167,0.3556267430001535,0.076395851,124.38,15.86,56.37,5685,14228,0,14.793431806305795,868,0,1,0,0,
1670359910109.00,0.0379104,0.22590025161201224,-1.603843084,149.18,156.52,5.37,5685,14228,0,14.793431806305795,870,0,1,0,0,
1670359910119.00,2.6381651996481392,-0.433849163,0.7059368055592624,102.44,243.23,43.65,3798,14228,0,9.804595735844524,872,0,1,0,0,
1670359910126.00,4.568434268663758,-1.023622179,0.3957361408485949,144.99,-23.8,-82.15,3798,14228,0,9.804595735844524,874,0,1,0,0,
1670359910136.00,3.1987182352858805,-1.98341929,-0.544444432,193.06,-51.57,-186.54,2205,14228,0,5.593034602,876,0,1,0,0,
1670359910143.00,1.2690164286779437,-2.563240539,1.6553956584033473,118.97,-2.78,-202.58,2205,14228,0,5.593034602,878,0,1,0,0,
1670359910152.00,-0.080672947,-1.843085254,2.2352567845247586,-144.37,-68.16,-144.35,102,14228,0,0.033139394,880,0,1,0,0,
1670359910159.00,-0.47035229,-1.39295194,2.175138839888801,-125.06,-80.86,-148.95,102,14228,0,0.033139394,882,0,1,0,0,
1670359910169.00,-0.790024128,-0.412838371,0.5050410019272835,-36.44,-39.61,-177.85,-2683,14228,0,-7.329822162,884,0,1,0,0,
1670359910176.00,-0.679690844,-0.072741821,-0.10503819,-51.95,-8.96,-164.76,-2683,14228,0,-7.329822162,886,0,1,0,0,
1670359910186.00,-0.089354586,0.5873406736811522,-0.635100517,-112.12,46.76,-122.02,-4338,14228,0,-11.70529842,888,0,0,0,0,
1670359910193.00,0.34098269260605496,1.1574120783161526,-0.485147775,-170.27,99.29,-86.98,-4338,14228,0,-11.70529842,890,0,0,0,0,
1670359910202.00,0.5413190911192827,0.9674751465979421,-0.36518161,-187.3,71.79,-56.68,-4769,14228,0,-12.8447729,892,0,0,0,0,
1670359910209.00,0.3116526216105475,0.8675322845201761,-0.795203471,-134.44,-49.54,-56.14,-4769,14228,0,-12.8447729,894,0,0,0,0,
1670359910219.00,0.29198114517186674,0.9975855117363739,-0.845214591,-78.17,-162.74,-71.15,-4812,14228,0,-12.95845597,896,0,0,0,0,
1670359910226.00,-0.067697614,0.9076364705158253,-0.485215935,-100.21,-241.68,-64.82,-4812,14228,0,-12.95845597,898,0,0,0,0,
1670359910236.00,-0.617385997,0.6676864359482331,-0.135208204,-135.84,-266.73,-52.88,-4781,14228,0,-12.87649841,900,0,0,0,0,
1670359910243.00,-0.81708629,0.5877363448558166,0.1648080870812838,-138.28,-259.36,-41.78,-4781,14228,0,-12.87649841,902,0,0,1,0,
1670359910252.00,-0.756800588,0.2977868526408942,0.554832484,-124.27,-187.25,25.27,-4078,14228,0,-11.01791242,904,0,0,1,0,
1670359910259.00,-0.606530709,0.037838407,0.5648644638425646,-123.2,-172.51,48.97,-4078,14228,0,-11.01791242,906,0,0,1,0,
1670359910269.00,-0.426278189,-0.642108653,0.4149033400512112,-141.96,-157.14,66.68,-3677,14228,0,-9.957751708,908,0,0,1,0,
1670359910276.00,-0.446044325,-0.772053952,0.4649482297299398,-203.04,-132.21,61.04,-3677,14228,0,-9.957751708,910,0,0,1,0,
1670359910286.00,-0.555830211,-0.69199694,0.4049980610466821,-254.21,-103.22,50.7,-3084,14228,0,-8.389982874,912,0,0,1,0,
1670359910293.00,-0.485636751,-0.351936808,-0.104948401,-283.05,-66.54,32.33,-3084,14228,0,-8.389982874,914,0,0,1,1,
1670359910302.00,-0.37546465,0.32812747850246954,-0.634892481,-286.72,-2.66,13.14,-1303,14228,0,-3.681388787,916,0,0,1,1,
1670359910309.00,0.10468555754303231,1.3281970252743807,-0.76483546,-286.72,38.04,17.24,-1303,14228,0,-3.681388787,918,0,0,1,1,
1670359910319.00,0.4248134375750753,1.698272768632154,-0.714778427,-282.85,17.13,41.07,4854,14228,0,12.596440404846698,920,0,0,1,1,
1670359910326.00,0.034918545,2.308355194730756,-0.734722203,-203.34,-65.76,86.72,4854,14228,0,12.596440404846698,922,0,0,1,1,
1670359910336.00,-1.644999591,2.398444104758137,-0.094667333,-103.41,-32.62,132.26,19283,14228,0,50.74371950430917,924,0,0,0,1,
1670359910343.00,-1.92494128,1.7685384684929653,0.055385847202125776,-31.59,38.96,154.27,19283,14228,0,50.74371950430917,926,0,0,0,1,
1670359910352.00,-0.554906395,0.5486364339967245,-0.154562897,149.49,217.97,149.62,19432,14228,0,51.137644557037696,928,0,0,0,1,
1670359910359.00,-0.364894291,0.42873552237327195,-0.404513753,164.41,205.89,128.62,19432,14228,0,51.137644557037696,930,0,0,0,1,
1670359910369.00,-0.244903965,0.3888328838843493,-0.594466834,179.53,175.85,104.3,18019,14228,0,47.40196603686717,932,0,0,0,1,
1670359910376.00,-0.194934228,0.3989254570404285,-0.624422104,208.87,180.5,93.27,18019,14228,0,47.40196603686717,934,0,0,0,0,
1670359910386.00,-0.464983771,0.26901001919468304,-1.754379287,238.1,186.28,55.9,20518,14228,0,54.00880299504561,936,0,0,0,0,
1670359910393.00,-1.545051139,-0.030916788,-2.834337699,246.22,216.03,11.73,20518,14228,0,54.00880299504561,938,1,0,0,0,
1670359910402.00,-2.135134574,-0.680858391,-2.794295963,186.32,257.31,35.16,23969,14228,0,63.13253022300632,940,1,0,0,0,
1670359910409.00,-0.675231805,-1.060818156,-1.414251775,148.76,276.39,101.95,23969,14228,0,63.13253022300632,942,1,0,0,0,
1670359910419.00,0.084659988,-1.930799196,1.4657980192369982,122.52,268.26,86.42,30210,14228,0,79.63243796850118,944,1,0,0,0,
1670359910426.00,0.5645439572617158,-2.56080414,2.6758569233304312,148.16,285.13,77.54,30210,14228,0,79.63243796850118,946,1,0,0,0,
1670359910436.00,1.054423278398267,-2.090834898,1.7159281210041983,241.8,184.23,41.26,32935,14228,0,86.83677198652288,948,1,0,0,0,
1670359910443.00,1.0843009196320936,-1.220892538,2.036014063061337,204.26,131.73,21.84,32935,14228,0,86.83677198652288,950,1,0,0,0,
1670359910452.00,0.23417951875756132,-0.250977385,0.7161164189982273,198.23,66.73,0.71,24486,14228,0,64.49937084,952,1,0,0,0,
1670359910459.00,0.19406140381904224,0.15891071542940777,0.8962362218828557,154.46,80.18,33.38,24486,14228,0,64.49937084,954,1,1,0,0,
1670359910469.00,-0.106051283,0.5987720952838911,0.8663740406628262,115.99,22.28,79.12,17381,14228,0,45.71522654934503,956,1,1,0,0,
1670359910476.00,0.033843529,-0.041392939,0.49653008911388125,175.08,17.27,44.79,17381,14228,0,45.71522654934503,958,1,1,0,0,
1670359910486.00,1.3237478680925783,-0.061584175,-0.753295687,167.4,21.03,-45.6,12812,14228,0,33.63573952977028,960,0,1,0,0,
1670359910493.00,3.233663547448904,-0.381801441,0.9468965278503445,116.99,38.95,-42.52,12812,14228,0,33.63573952977028,962,0,1,0,0,
1670359910502.00,3.7635917663271736,-0.662044514,-0.452893494,130.95,-159.01,-74.24,7977,14228,0,20.85300375834461,964,0,1,0,0,
1670359910509.00,2.083532679439788,-0.932313016,-0.642665998,154.16,-132.57,-144.76,7977,14228,0,20.85300375834461,966,0,1,0,0,
1670359910519.00,1.4734852780164922,-1.172606309,2.0075787779443357,122.03,-167.94,-156.21,330,14228,0,0.6359240387805666,968,0,1,0,0,
1670359910526.00,-0.126552359,-2.042923372,1.7378404693395526,99,-171.57,-156.49,330,14228,0,0.6359240387805666,970,0,1,0,0,
1670359910536.00,-0.906582638,-1.813262648,1.048118286970899,-64.04,-32.34,-165.65,-2243,14228,0,-6.16655355,972,0,1,0,0,
1670359910543.00,-0.826608036,-1.513621918,0.8384108719486925,-95.08,-48.69,-171.26,-2243,14228,0,-6.16655355,974,0,1,0,0,
1670359910552.00,-0.736630818,-0.403998296,-0.221283593,-115.46,1.66,-159.09,-3766,14228,0,-10.19304922,976,0,0,0,0,
1670359910559.00,-0.64665294,-0.034388397,-0.66096716,-108.25,25.45,-142.49,-3766,14228,0,-10.19304922,978,0,0,0,0,
1670359910569.00,-0.196676076,0.5652114104645585,-0.950641869,-138.87,59.96,-98.48,-5381,14228,0,-14.46277379,980,0,0,0,0,
1670359910576.00,0.083298311,0.744804766,-0.450309551,-197.04,90.66,-72.88,-5381,14228,0,-14.46277379,982,0,0,0,0,
1670359910586.00,0.1332688581055949,0.7943951437139525,-0.359971774,-184.06,10.25,-67.44,-5754,14228,0,-15.44890832,984,0,0,0,0,
1670359910593.00,0.38323420134437725,0.9939857468652322,-0.479629874,-142.9,-99.77,-72.72,-5754,14228,0,-15.44890832,986,0,0,0,0,
1670359910602.00,0.5431929030052005,1.023579446697503,-0.389285012,-134.2,-183.68,-71.44,-4995,14228,0,-13.44226996,988,0,0,0,0,
1670359910609.00,0.3531433892821007,0.39317875595084495,-0.028938188,-138.39,-226.56,-76.08,-4995,14228,0,-13.44226996,990,0,0,0,0,
1670359910619.00,-0.336916063,-0.017214124,0.15140971347429588,-149.99,-271.06,-69.64,-5036,14228,0,-13.55066544,992,0,0,1,0,
1670359910626.00,-0.686987244,0.082402824,0.4317578345246429,-161.32,-263.52,-51.71,-5036,14228,0,-13.55066544,994,0,0,1,0,
1670359910636.00,-1.197071842,-0.147968453,0.5421052519573568,-165.47,-204.69,34.82,-4989,14228,0,-13.42640721,996,0,0,1,0,
1670359910643.00,-1.107171273,-0.348326002,0.3124509014656784,-164.46,-179.85,58.28,-4989,14228,0,-13.42640721,998,0,0,1,0,
1670359910652.00,-0.817286563,-0.528667809,0.12279355652845701,-205.65,-115.54,67,-4456,14228,0,-12.01726591,1000,0,0,1,0,
1670359910659.00,-0.68741834,-0.428991731,0.16313186269238691,-256.12,-69.32,53.84,-4456,14228,0,-12.01726591,1002,0,0,1,1,
1670359910669.00,-0.437566888,-0.059295463,-0.076535612,-276.25,-31.18,28.91,-4963,14228,0,-13.35766861,1004,0,0,1,1,
1670359910676.00,-0.197732232,0.25042342266998513,-0.826210315,-280.91,-2.02,14.6,-4963,14228,0,-13.35766861,1006,0,0,1,1,
1670359910686.00,0.16208577560456752,0.8101673770276002,-1.26589359,-286.67,22.23,7.04,-3630,14228,0,-9.83349347,1008,0,0,1,1,
1670359910693.00,0.16188734999471524,1.659938706,-1.035586498,-286.72,29.21,6.86,-3630,14228,0,-9.83349347,1010,0,0,1,1,
1670359910702.00,-0.128327299,2.819739335031212,-0.635289709,-286.69,25.73,43.08,-1153,14228,0,-3.284819942,1012,0,0,0,1,
1670359910709.00,-0.868557962,3.1595704942742557,-0.195003523,-212.05,55.74,88.01,-1153,14228,0,-3.284819942,1014,0,0,0,1,
1670359910719.00,-1.058804319,2.379432431300812,0.11527200733806098,-23.65,163.25,126.95,-1582,14228,0,-4.419006839,1016,0,0,0,1,
1670359910726.00,-0.879065783,1.8793243139138731,-0.024463064,58.35,201.94,148.07,-1582,14228,0,-4.419006839,1018,0,0,0,1,
1670359910736.00,-0.299341422,0.9192443578522396,-0.594208647,181.06,173.51,152.26,-3057,14228,0,-8.318600482,1020,0,0,0,1,
1670359910743.00,-0.139630015,0.6691900730113445,-0.723964577,200.87,145.93,130.31,-3057,14228,0,-8.318600482,1022,0,0,0,1,
1670359910752.00,-0.009930165,0.2591585116483412,-1.1937305,214.12,132.93,76.02,-4116,14228,0,-11.11837653,1024,1,0,0,1,
1670359910759.00,-0.210240398,0.1491464577139655,-1.393505739,200.17,139.03,30.61,-4116,14228,0,-11.11837653,1026,1,0,0,0,
1670359910769.00,-1.050559169,0.099150549,-1.863289166,182.36,140.88,14.96,-1921,14228,0,-5.315252429,1028,1,0,0,0,
1670359910776.00,-1.820884746,-0.140832647,-2.733079054,163.14,129.68,40.38,-1921,14228,0,-5.315252429,1030,1,0,0,0,
1670359910786.00,-1.701214997,-0.520806572,-1.672872912,151.78,182.53,62.83,756,14228,0,1.7621795586621254,1032,1,0,0,0,
1670359910793.00,-0.751547216,-0.990774586,1.8573324984355768,135.02,273.93,46.06,756,14228,0,1.7621795586621254,1034,1,0,0,0,
1670359910802.00,1.1981218084309058,-1.460739821,3.29754072,231.7,286.68,19.99,6843,14228,0,17.854943289927498,1036,1,0,0,0,
1670359910809.00,1.5577954575735777,-1.560705023,2.2377548674689773,279.34,286.68,-14.46,6843,14228,0,17.854943289927498,1038,1,0,0,0,
1670359910819.00,1.3574768617472828,-1.680672407,1.1179771660053774,286.54,204.58,-59.85,8998,14228,0,23.55231569684008,1040,1,0,0,0,
1670359910826.00,1.0771686549239334,-1.610643579,0.7982090002667177,277.58,131.77,-40.98,8998,14228,0,23.55231569684008,1042,1,0,0,0,
1670359910836.00,0.026872974487824997,-0.150619537,0.9784511777745817,187.7,-101.2,47.02,5053,14228,0,13.122555072584795,1044,1,1,0,0,
1670359910843.00,-0.313408373,0.44939917546625696,1.0987040942229114,151.93,-128.42,51,5053,14228,0,13.122555072584795,1046,0,1,0,0,
1670359910852.00,-0.223673688,0.049412191,0.4089677715425085,125.92,-47.73,79.74,532,14228,0,1.169970083,1048,0,1,0,0,
1670359910859.00,0.24607876136464285,-0.660580857,-0.760758072,116.03,84.25,28.08,532,14228,0,1.169970083,1050,0,1,0,0,
1670359910869.00,1.0358507200882485,-0.630580303,-0.100473835,99.24,189.7,-9.4,793,14228,0,1.8599998737692087,1052,0,1,0,0,
1670359910876.00,3.085643747328765,-0.200586329,0.3198201306861984,125.94,19.57,-77.67,793,14228,0,1.8599998737692087,1054,0,1,0,0,
1670359910886.00,3.0154588447865396,-0.480598927,-0.739876458,217.26,-75.28,-180.28,-1888,14228,0,-5.228007283,1056,0,1,0,0,
1670359910893.00,1.9352960937910537,-1.580617893,1.500436134,85.38,-49.88,-228.21,-1888,14228,0,-5.228007283,1058,0,1,0,0,
1670359910902.00,0.49515458528773354,-2.070642705,2.160757516218575,-97.91,-36.39,-201.73,-3395,14228,0,-9.212202279,1060,0,1,0,0,
1670359910909.00,-0.494967294,-1.710672302,1.7610868831103177,-116.17,-32.03,-194.1,-3395,14228,0,-9.212202279,1062,0,1,0,0,
1670359910919.00,-0.825071431,-1.030704949,0.7914227777951366,-36.66,-55.51,-202.52,-4758,14228,0,-12.81569118,1064,0,0,0,0,
1670359910926.00,-0.85515963,-0.660738286,0.23176314230999412,-36.2,-37.59,-182.17,-4758,14228,0,-12.81569118,1066,0,0,0,0,
1670359910936.00,-0.635233437,0.3392304767711438,-1.047894426,-66.34,14.52,-107.49,-6071,14228,0,-16.28699047,1068,0,0,0,0,
1670359910943.00,-0.425294099,0.5592043286823648,-1.137552356,-95.17,59.35,-85.6,-6071,14228,0,-16.28699047,1070,0,0,0,0,
1670359910952.00,-0.015342619,0.7591862240140653,-0.947212822,-140.3,123.67,-67.85,-6268,14228,0,-16.80781756,1072,0,0,0,0,
1670359910959.00,0.11462014543586267,0.9491789168021942,-0.616877624,-182.28,104.01,-74.62,-6268,14228,0,-16.80781756,1074,0,0,0,0,
1670359910969.00,0.31459337859034847,1.2791848566143302,-0.186548211,-175.91,-18.34,-80.93,-6001,14228,0,-16.10192501,1076,0,0,0,0,
1670359910976.00,0.4845762166243026,1.6192060932737544,-0.126225796,-134.23,-123.86,-74.07,-6001,14228,0,-16.10192501,1078,0,0,0,0,
1670359910986.00,0.8345676682071526,1.019244184571353,-0.005911467,-100.75,-168.19,-52.48,-5634,14228,0,-15.13165324,1080,0,0,0,0,
1670359910993.00,0.5145665391480274,0.14930018927307745,-0.025606256,-103.47,-213.69,-44.43,-5634,14228,0,-15.13165324,1082,0,0,0,1,
1670359911002.00,0.2145713974806383,-0.530625181,0.45468881208209455,-151.37,-205.97,45.13,-5811,14228,0,-15.59960448,1084,0,0,0,1,
1670359911009.00,0.064580616,-0.350531319,0.5649726618918529,-172.64,-143.99,73.4,-5811,14228,0,-15.59960448,1086,0,0,0,1,
1670359911019.00,-0.005407544,-0.750417523,0.16524409183381555,-185.12,-132.62,92.35,-5426,14228,0,-14.58174444,1088,0,0,0,1,
1670359911026.00,-0.10539486,-0.840282894,0.005501754,-225.85,-130.58,89.92,-5426,14228,0,-14.58174444,1090,0,0,0,1,
1670359911035.00,-0.475383099,-0.200126284,-0.104255788,-269.76,-138.07,59.99,-4627,14228,0,-12.46935439,1092,0,0,0,1,
1670359911042.00,-0.655373952,0.3700536741895714,-0.264029988,-286.57,-132.77,49.99,-4627,14228,0,-12.46935439,1094,0,0,1,1,
1670359911052.00,-0.71536894,0.8402584243509976,-0.623822245,-286.72,-125.32,44.14,-3660,14228,0,-9.912807239,1096,0,0,1,1,
1670359911059.00,-0.805369349,1.0604892840678248,-0.883633824,-286.72,-125.36,44,-3660,14228,0,-9.912807239,1098,0,0,1,1,
1670359911069.00,-0.375376189,2.030747257,-1.013465755,-279.89,-93.77,81.18,-47,14228,0,-0.360785658,1100,0,0,1,1,
1670359911076.00,0.12460977264847976,2.2710328365786103,-0.453318754,-262.26,-72.21,81.49,-47,14228,0,-0.360785658,1102,0,0,1,1,
1670359911085.00,0.81458789,2.7913457881959336,0.096806761,-136.69,-51.88,41.25,2608,14228,0,6.658482898616696,1104,0,0,1,0,
1670359911092.00,0.7245574574867109,2.3116849729645867,0.026910552796621884,21.48,-17.03,14.46,2608,14228,0,6.658482898616696,1106,0,0,1,0,
1670359911102.00,-0.085482428,1.2820482942353184,-0.273007556,110.17,-29.58,50.26,5785,14228,0,15.05781103632494,1108,0,0,1,0,
1670359911109.00,-1.515532813,0.3424328378318588,-0.7029477,175.52,-44.12,69,5785,14228,0,15.05781103632494,1110,0,0,1,0,
1670359911119.00,-2.445594614,-0.317164829,-0.952909884,244.72,-9.06,55.78,8072,14228,0,21.10416403,1112,0,0,1,0,
1670359911126.00,-2.435668224,-0.056748342,-1.08289386,249.11,64.56,50.83,8072,14228,0,21.10416403,1114,0,0,1,0,
1670359911135.00,-2.545753212,0.12367864602644588,-1.482899014,226.26,150.59,44.21,10833,14228,0,28.40367457,1116,0,0,0,0,
1670359911142.00,-2.405848185,0.3541124930950152,-2.44292425,183.79,266.84,48.09,10833,14228,0,28.40367457,1118,1,0,0,0,
1670359911152.00,-0.915950802,0.014549516678079133,-2.612967808,153.01,286.68,81.65,13146,14228,0,34.518766158034225,1120,1,0,0,0,
1670359911159.00,0.21394203797513744,-0.085014029,-1.413027091,143.72,286.68,88.52,13146,14228,0,34.518766158034225,1122,1,0,0,0,
1670359911169.00,1.5738338154261124,-1.844581876,2.6369012418798206,159.13,286.68,47.07,16867,14228,0,44.356317307046616,1124,1,0,0,0,
1670359911176.00,1.8837279271913574,-2.684157503,2.146820751153353,208.18,286.45,34.57,16867,14228,0,44.356317307046616,1126,1,0,0,0,
1670359911185.00,1.373627313556312,-1.773743792,1.4867345562127858,275.24,175.1,-21.83,22088,14228,0,58.15955691,1128,1,0,0,0,
1670359911192.00,0.7235343154584436,-1.083342834,1.5466450406571406,210.69,-0.33,-19.23,22088,14228,0,58.15955691,1130,1,0,0,0,
1670359911202.00,0.5234507558377806,-0.412956021,1.066553904731952,193.79,-3.21,34.29,18067,14228,0,47.52886806727636,1132,1,0,0,0,
1670359911209.00,-0.416621877,0.3374156921571238,0.6764622920699046,148.41,18.17,100.21,18067,14228,0,47.52886806727636,1134,1,1,0,0,
1670359911219.00,-0.966682212,0.41777152161004305,0.15637092391480967,117.27,-70.32,100.47,9816,14228,0,25.714937798396686,1136,1,1,0,0,
1670359911226.00,-0.656728776,-0.331889332,-0.763719721,119.47,-72.84,0.04,9816,14228,0,25.714937798396686,1138,0,1,0,0,
1670359911235.00,0.5232401323615771,0.098432275,-0.273809199,86.76,42.57,-41.79,8749,14228,0,22.894011414092407,1140,0,1,0,0,
1670359911242.00,2.643226299433772,-0.161264516,0.646103026,75.43,96.57,-44.99,8749,14228,0,22.894011414092407,1142,0,1,0,0,
1670359911252.00,3.0232311849962117,-0.770980525,-1.13398243,175.99,-30.71,-133.54,5450,14228,0,14.172140615760805,1144,0,1,0,0,
1670359911259.00,2.133255462276447,-0.720716452,-0.254064884,198.67,6.41,-161.96,5450,14228,0,14.172140615760805,1146,0,1,0,0,
1670359911269.00,0.37329885316874933,-2.340472737,1.965856434102042,65.01,-19.34,-165.87,823,14228,0,1.9393136427749529,1148,0,1,0,0,
1670359911276.00,-0.086639642,-2.42024934,1.7757821918457593,-0.84,22.4,-173.11,823,14228,0,1.9393136427749529,1150,0,1,0,0,
1670359911285.00,-0.536561346,-1.910045488,1.1857126078923839,-60.39,58.04,-179.09,-670,14228,0,-2.007868261,1152,0,1,0,0,
1670359911292.00,-0.466467593,-0.949859581,0.45564731601164316,-92.15,32.82,-167.59,-670,14228,0,-2.007868261,1154,0,1,0,0,
1670359911302.00,-0.566359577,0.060310659236283704,-0.144414496,-116.49,72.08,-137.99,-2987,14228,0,-8.133535021,1156,0,0,0,0,
1670359911309.00,-0.236238303,0.6304678838013555,-0.464473843,-122.11,101.56,-102.13,-2987,14228,0,-8.133535021,1158,0,0,0,0,
1670359911319.00,0.23389538334704763,0.8906147909000888,-0.554531737,-152.63,122.65,-66.18,-4610,14228,0,-12.42440992,1160,0,0,0,0,
1670359911326.00,0.46404070783681217,0.7107538958060093,-0.574589044,-162.43,93.82,-49.41,-4610,14228,0,-12.42440992,1162,0,0,0,0,
1670359911335.00,0.5941968366943344,0.8508874239724922,-0.564646428,-126.13,2.39,-68.45,-5121,14228,0,-13.77538779,1164,0,0,0,0,
1670359911342.00,0.5143627773100743,1.1210172770557123,-0.244704336,-113.36,-45.87,-90.21,-5121,14228,0,-13.77538779,1166,0,0,0,0,
1670359911352.00,0.2545373383560705,0.8211450039282856,0.065236961,-101.61,-182.88,-89.63,-5176,14228,0,-13.92079637,1168,0,0,0,0,
1670359911359.00,0.19471915042179758,0.6112717859113699,0.055177295,-97.33,-206.55,-73,-5176,14228,0,-13.92079637,1170,0,0,0,0,
1670359911369.00,0.11490671757467028,0.011398487106254192,0.4951165049993211,-104.7,-212.64,-13.55,-5449,14228,0,-14.64255166,1172,0,0,0,1,
1670359911376.00,0.12509846193392685,-0.158474227,0.6950543574679985,-141.06,-154.93,14.85,-5449,14228,0,-14.64255166,1174,0,0,0,1,
1670359911385.00,0.085292748,-0.548345744,0.6749904501949019,-167.68,-118.06,72.36,-5158,14228,0,-13.8732081,1176,0,0,0,1,
1670359911392.00,0.095487894,-0.84821537,0.5349241457454559,-197.63,-106.86,100.64,-5158,14228,0,-13.8732081,1178,0,0,0,1,
1670359911402.00,0.055682181,-0.848082206,0.6048545555236584,-231,-141.24,102.03,-3551,14228,0,-9.624633878,1180,0,0,0,1,
1670359911409.00,-0.284126138,-0.447945071,0.19478056099939706,-251.92,-174.48,78.61,-3551,14228,0,-9.624633878,1182,0,0,0,1,
1670359911419.00,-0.613938782,0.11219748001302715,-0.295299129,-277.3,-166.9,63.91,-3314,14228,0,-8.998055103,1184,0,0,1,1,
1670359911426.00,-0.933757355,0.9723470324011669,-0.845385859,-286.72,-106.64,51.93,-3314,14228,0,-8.998055103,1186,0,0,1,1,
1670359911435.00,-0.753583226,1.7025050797951085,-1.425480841,-286.72,-57.58,76.82,-771,14228,0,-2.274891284,1188,0,0,1,1,
1670359911442.00,-0.513417473,2.1126727479702927,-1.405584963,-286.69,-39.6,90.97,-771,14228,0,-2.274891284,1190,0,0,1,1,
1670359911452.00,0.2967390968207131,3.022850521938802,-0.355698655,-198.9,-78.02,82.71,6372,14228,0,16.609717116537325,1192,0,0,1,0,
1670359911459.00,0.31688580939662914,3.0030379999544476,-0.205821934,-122.68,-73.48,66.46,6372,14228,0,16.609717116537325,1194,0,0,1,0,
1670359911469.00,-0.252978007,0.8632337535174127,-0.315954561,53.22,0.14,56.15,12969,14228,0,34.050814920900336,1196,0,0,1,0,
1670359911476.00,-0.50285305,0.22343545874394188,-0.216096158,136.11,20.29,94.68,12969,14228,0,34.050814920900336,1198,0,0,1,0,
1670359911485.00,-1.342739937,-0.026359734,-0.056246245,178.22,44.69,64.36,15062,14228,0,39.584272205201046,1200,0,0,1,0,
1670359911492.00,-2.152639002,0.27384512670408134,-0.626404254,209.37,97.92,23.47,15062,14228,0,39.584272205201046,1202,0,0,1,0,
1670359911502.00,-2.182550055,0.6940469081923752,-1.176569488,233.86,181.71,11.54,14833,14228,0,38.97884377,1204,0,0,0,0,
1670359911509.00,-2.182472164,0.33424235601147756,-1.576740988,229.29,243.65,27.22,14833,14228,0,38.97884377,1206,1,0,0,0,
1670359911519.00,-2.312403547,-0.285571941,-2.756917326,225.49,286.42,26.28,16786,14228,0,44.14217013073111,1208,1,0,0,0,
1670359911526.00,-0.912341571,-0.635399476,-2.317096377,219.76,286.68,72.57,16786,14228,0,44.14217013073111,1210,1,0,0,0,
1670359911535.00,0.8777170859816539,-1.645243644,0.5027248051358287,129.95,286.68,132.7,20923,14228,0,55.079538876623154,1212,1,0,0,0,
1670359911542.00,1.5777760391389914,-2.205107509,2.282549719664892,120.64,286.68,144.78,20923,14228,0,55.079538876623154,1214,1,0,0,0,
1670359911552.00,1.7378387208060082,-2.584993531,2.0323818120616135,221.96,233.73,30.18,28254,14228,0,74.46118022932669,1216,1,0,0,0,
1670359911559.00,1.3979080540920497,-1.654903361,1.802223946206183,194.65,108.55,2.55,28254,14228,0,74.46118022932669,1218,1,0,0,0,
1670359911569.00,0.6079863681014683,-0.72483782,0.8320782410070771,204.48,-65.77,-9.31,23203,14228,0,61.10738532105967,1220,1,0,0,0,
1670359911576.00,0.1080755066525107,0.085202901,0.5619461889380221,176.65,-20.56,-6.34,23203,14228,0,61.10738532105967,1222,1,0,0,0,
1670359911585.00,-0.551822957,0.6852189271138094,0.6018288563799309,114.35,-21.79,40.23,14198,14228,0,37.30003565783564,1224,1,1,0,0,
1670359911592.00,-0.461707496,0.5352103983202527,-0.048272961,99.05,-62.13,52.77,14198,14228,0,37.30003565783564,1226,0,1,0,0,
1670359911602.00,0.2684235150629491,0.2151773051372251,-0.608358615,104.01,-6.53,-27.96,10309,14228,0,27.01832740239108,1228,0,1,0,0,
1670359911609.00,1.6385717528435089,0.2651194589519695,-0.458427452,109.94,106.04,-41.99,10309,14228,0,27.01832740239108,1230,0,1,0,0,
1670359911619.00,3.5987386617017068,-0.454963447,0.6215212941778603,131.55,-35.75,-72.66,7090,14228,0,18.507959988074788,1232,0,1,0,0,
1670359911626.00,3.068924989676488,-0.795071727,-0.718511526,166.92,-155.47,-112.11,7090,14228,0,18.507959988074788,1234,0,1,0,0,
1670359911635.00,1.3791304354984373,-1.475205546,2.021474927889755,169.15,-102.44,-185.35,2611,14228,0,6.666414276,1236,0,1,0,0,
1670359911642.00,0.4693536894203259,-2.125364709,2.3214812941691574,98.14,-103.43,-178.23,2611,14228,0,6.666414276,1238,0,1,0,0,
1670359911652.00,-1.250407176,-2.265548441,1.6615076912299938,-68.53,-3.9,-217.19,-1026,14228,0,-2.94905832,1240,0,1,0,0,
1670359911659.00,-1.240154218,-1.915755208,1.3315535074521914,-71.1,2.03,-213.11,-1026,14228,0,-2.94905832,1242,0,1,0,0,
1670359911669.00,-0.849889241,-1.105982671,0.48161745568020103,-89.28,34.83,-161.21,-3211,14228,0,-8.725744496,1244,0,0,0,0,
1670359911676.00,-0.709613651,-0.196227808,-0.448302211,-96.39,105.34,-123.42,-3211,14228,0,-8.725744496,1246,0,0,0,0,
1670359911685.00,-0.239328492,0.5635128203729517,-0.968207417,-107.12,155.77,-80.83,-5246,14228,0,-14.10586183,1248,0,0,0,0,
1670359911692.00,0.41096542546804826,1.0432427593340166,-0.58809999,-152.77,189.31,-42.81,-5246,14228,0,-14.10586183,1250,0,0,0,0,
1670359911702.00,0.8212673572930391,1.0529653863197566,-0.41798151,-167.1,120.39,-41.59,-5743,14228,0,-15.4198266,1252,0,0,0,0,
1670359911709.00,0.9915764333875325,1.1826837368429273,-0.46785331,-109.15,-29.27,-70.79,-5743,14228,0,-15.4198266,1254,0,0,0,0,
1670359911719.00,0.9418915030838568,1.1124004249614088,-0.527716514,-88.13,-170.13,-102.31,-5660,14228,0,-15.20039184,1256,0,0,0,0,
1670359911726.00,0.6422110651480845,1.0421176196952022,-0.297572063,-106.45,-224.24,-101.49,-5660,14228,0,-15.20039184,1258,0,0,0,0,
1670359911735.00,-0.307466698,0.3318370670880011,0.19257926342951626,-162.2,-277.74,-65.64,-5621,14228,0,-15.09728394,1260,0,0,0,1,
1670359911742.00,-0.40714378,0.19156017886372256,0.44273676605588874,-164.89,-259.02,-38.57,-5621,14228,0,-15.09728394,1262,0,0,0,1,
1670359911752.00,-0.356822162,-0.418711823,0.6328996983589396,-166.69,-169.96,27.02,-4902,14228,0,-13.19639728,1264,0,0,0,1,
1670359911759.00,-0.256503713,-0.668977747,0.47306716115557296,-172.59,-114.52,77.85,-4902,14228,0,-13.19639728,1266,0,0,0,1,
1670359911769.00,-0.186190167,-1.039236272,0.24323805831007647,-203.56,-89.97,93.45,-4327,14228,0,-11.6762167,1268,0,0,0,1,
1670359911776.00,-0.245883149,-0.939485814,0.19341111961412777,-240.07,-101.03,93.75,-4327,14228,0,-11.6762167,1270,0,0,0,1,
1670359911785.00,-0.525584184,-0.289724454,-0.16641504,-267.85,-111.4,79.34,-3514,14228,0,-9.526813563,1272,0,0,0,1,
1670359911792.00,-0.735294667,0.39005000569825077,-0.616241837,-286.48,-96.79,87.27,-3514,14228,0,-9.526813563,1274,0,0,1,1,
1670359911802.00,-0.695015791,1.2398398566416715,-0.986070605,-286.72,-83.95,100.68,-1827,14228,0,-5.066735953,1276,0,0,1,1,
1670359911809.00,-0.084748512,1.9296472125726276,-0.925902451,-286.72,-75.45,108.63,-1827,14228,0,-5.066735953,1278,0,0,1,1,
1670359911819.00,0.47550640438064307,2.259473721038462,-0.815738154,-274.02,-53.47,88.09,-344,14228,0,-1.145991972,1280,0,0,1,1,
1670359911826.00,0.4957482298074879,2.329320323865512,-0.92557814,-225.64,-30.84,72.95,-344,14228,0,-1.145991972,1282,0,0,1,1,
1670359911835.00,0.095976141,2.4691871073268614,-0.155422495,-52.91,36.17,72.3,2755,14228,0,7.047120366744839,1284,0,0,1,0,
1670359911842.00,0.086189181,2.149073235608471,0.17472894328231162,3.29,35.25,87.51,2755,14228,0,7.047120366744839,1286,0,0,1,0,
1670359911852.00,-0.493613675,0.37897699076966007,-0.005123539,103.8,18.98,102.37,4896,14228,0,12.70747968145474,1288,0,0,1,0,
1670359911859.00,-0.87343342,-0.021104008,-0.394979636,167.37,-27.31,81.54,4896,14228,0,12.70747968145474,1290,0,0,1,0,
1670359911869.00,-1.593270855,-0.101172471,-0.93483899,212.05,-50.3,58.31,3905,14228,0,10.08748151196501,1292,0,0,1,0,
1670359911876.00,-2.163126391,0.4087688040489833,-1.234701066,217.83,38.81,45.34,3905,14228,0,10.08748151196501,1294,0,0,0,0,
1670359911885.00,-2.062999832,0.48871697519690105,-1.214564994,199.32,145,37.81,4960,14228,0,12.876682388666993,1296,1,0,0,0,
1670359911892.00,-1.872890229,0.11866909680713525,-1.904429448,175.79,224.66,20.85,4960,14228,0,12.876682388666993,1298,1,0,0,0,
1670359911902.00,-1.242795846,-0.031377899,-2.564292522,173.05,283.89,17.66,5293,14228,0,13.757065224630749,1300,1,0,0,0,
1670359911909.00,-0.162714282,-0.291427145,-1.144151585,172.96,286.68,18.79,5293,14228,0,13.757065224630749,1302,1,0,0,0,
1670359911919.00,0.9673572802211714,-0.991481743,2.1559966559296515,145.79,286.68,36.44,8134,14228,0,21.268079149474666,1304,1,0,0,0,
1670359911926.00,1.5074217205650975,-1.48154461,3.206155673655697,159.89,285.7,34.4,8134,14228,0,21.268079149474666,1306,1,0,0,0,
1670359911935.00,0.9074816473321348,-1.921618294,1.6363284362434154,285.83,54.55,-49.2,11975,14228,0,31.422885374510034,1308,1,0,0,0,
1670359911942.00,0.7475392418011478,-1.901704772,1.2665170503465955,280.44,-9.96,-41.02,11975,14228,0,31.422885374510034,1310,1,0,0,0,
1670359911952.00,0.6875962831941078,-1.171805346,0.7167228598588749,240.72,-13.33,-26.29,9152,14228,0,23.959459711069563,1312,1,1,0,0,
1670359911959.00,-0.212345753,-0.161920679,1.0369466785468586,171.73,-18.37,28.34,9152,14228,0,23.959459711069563,1314,1,1,0,0,
1670359911969.00,-0.632285553,0.31794898264343185,0.5171889293934799,159.77,-41.23,57.38,4003,14228,0,10.346573157383771,1316,0,1,0,0,
1670359911976.00,0.047778202,0.13780354939571227,-0.502550262,145.45,56.33,35.73,4003,14228,0,10.346573157383771,1318,0,1,0,0,
1670359911985.00,0.7978469043364091,0.007642914,-0.502270906,113.43,197.56,26.63,1706,14228,0,4.273782243844005,1320,0,1,0,0,
1670359911992.00,3.267921848068922,-0.762533061,1.2580270035349155,114.43,93.06,-3.32,1706,14228,0,4.273782243844005,1322,0,1,0,0,
1670359912002.00,3.128003813859533,-1.432724423,0.1183434564384388,183.28,-96.17,-172.25,135,14228,0,0.1203845402432332,1324,0,1,0,0,
1670359912009.00,1.2880926685037162,-2.402930908,1.6986782629828652,10.61,-97.43,-209.08,135,14228,0,0.1203845402432332,1326,0,1,0,0,
1670359912018.00,-0.321812656,-2.123151667,2.0890308810999505,-114.91,-79.31,-220.66,-2666,14228,0,-7.284877693,1328,0,1,0,0,
1670359912025.00,-0.891713759,-1.453385084,1.709400220272433,-75.91,-80.54,-219.14,-2666,14228,0,-7.284877693,1330,0,1,0,0,
1670359912035.00,-0.941612286,-0.683628786,0.5897845196766764,-50.16,-44.95,-194.89,-4523,14228,0,-12.19439999,1332,0,1,0,0,
1670359912042.00,-0.851509634,0.18612015263480242,-0.28981854,-73.95,25.17,-143.6,-4523,14228,0,-12.19439999,1334,0,1,0,0,
1670359912052.00,-0.571406864,0.6258649235070488,-0.829411538,-94.91,67.23,-96,-5454,14228,0,-14.65577063,1336,0,0,0,0,
1670359912059.00,0.008695266,0.88560871,-0.738997013,-106.43,93.35,-69.81,-5454,14228,0,-14.65577063,1338,0,0,0,0,
1670359912068.00,0.3687961788460736,0.9053544899279808,-0.38857728,-173.03,140.07,-51.51,-5983,14228,0,-16.05433675,1340,0,0,0,0,
1670359912075.00,0.40889533,0.9551049266827067,-0.418154405,-167.59,90.04,-52.64,-5983,14228,0,-16.05433675,1342,0,0,0,0,
1670359912085.00,0.6289920747326849,1.3448623158089892,-0.527730245,-114.04,-88.94,-71.45,-5878,14228,0,-15.77673856,1344,0,0,0,0,
1670359912092.00,0.7090855908975345,1.3646285291838252,-0.557306474,-90.8,-145.45,-67.8,-5878,14228,0,-15.77673856,1346,0,0,0,0,
1670359912102.00,0.44917482963990674,0.6944049660869132,-0.336884568,-112.02,-212.49,-58.74,-5003,14228,0,-13.4634203,1348,0,0,0,0,
1670359912109.00,0.039258517404308996,-0.075807404,-0.126465823,-145.79,-244.46,-32.76,-5003,14228,0,-13.4634203,1350,0,0,0,0,
1670359912118.00,-0.020664776,0.023992122536406563,0.5239485877534016,-171.93,-199.78,-1.01,-4430,14228,0,-11.94852731,1352,0,0,0,1,
1670359912125.00,-0.170596544,-0.296195839,0.6343574852059571,-165.51,-140.05,44.56,-4430,14228,0,-11.94852731,1354,0,0,0,1,
1670359912135.00,-0.310538267,-0.606370641,0.34475956327875334,-171.44,-120.01,82.04,-3651,14228,0,-9.889013108,1356,0,0,0,1,
1670359912142.00,-0.590491351,-0.676531514,0.23515333110563752,-216.3,-102.69,93.17,-3651,14228,0,-9.889013108,1358,0,0,0,1,
1670359912152.00,-0.84045706,-0.386677494,0.025537145772001876,-251.36,-99.89,105.78,-2922,14228,0,-7.961688521,1360,0,0,0,1,
1670359912159.00,-0.910436429,-0.076807405,-0.16409072,-269.21,-98.65,116.12,-2922,14228,0,-7.961688521,1362,0,0,1,1,
1670359912168.00,-0.790430187,0.673080059,-0.573731997,-286.72,-84.18,141.07,-2547,14228,0,-6.970266409,1364,0,0,1,1,
1670359912175.00,-0.600438737,0.9229861814474599,-0.643388328,-286.72,-83.75,143.71,-2547,14228,0,-6.970266409,1366,0,0,1,1,
1670359912185.00,0.32953780132257415,1.5429120311762725,-0.85306117,-286.72,-75.6,136.48,-1188,14228,0,-3.377352673,1368,0,0,1,1,
1670359912192.00,0.5494994527431695,1.7628582762744869,-1.072751708,-246.93,-32.87,110.71,-1188,14228,0,-3.377352673,1370,0,0,1,1,
1670359912202.00,0.5294462041159113,2.3628250100783523,-1.302460781,-145.58,9.12,89.11,8991,14228,0,23.533809150738737,1372,0,0,1,0,
1670359912209.00,0.43937787849587817,2.6128115842520496,-0.072188838,-69.54,9.55,78.3,8991,14228,0,23.533809150738737,1374,0,0,1,0,
1670359912218.00,0.8292940921437448,1.1028164943174172,1.0980639774437893,53.32,-9,77.18,17472,14228,0,45.95581164866245,1376,0,0,1,0,
1670359912225.00,0.009194246,-0.297162538,0.49829756796397534,163.18,-38.53,55.76,17472,14228,0,45.95581164866245,1378,0,0,1,0,
1670359912235.00,-1.22092241,-0.287128237,-0.261488333,194.16,-62.08,7.02,13169,14228,0,34.579573380938626,1380,0,0,1,0,
1670359912242.00,-2.011056551,0.012916568037265125,-1.041294122,207.36,-59.68,1.86,13169,14228,0,34.579573380938626,1382,0,0,1,0,
1670359912252.00,-2.001208437,0.5329690798963072,-1.401120095,203.73,7.01,9.58,12008,14228,0,31.51013052041635,1384,0,0,0,0,
1670359912259.00,-1.881377663,0.5530264682738377,-1.340966204,202.76,55.69,10.67,12008,14228,0,31.51013052041635,1386,0,0,0,0,
1670359912268.00,-1.641563061,0.2030857686847412,-1.890831901,211.71,184.74,-4.41,15751,14228,0,41.40584510003296,1388,1,0,0,0,
1670359912275.00,-1.62176273,0.073143858,-2.310716025,213.38,243.47,-16.07,15751,14228,0,41.40584510003296,1390,1,0,0,0,
1670359912285.00,-0.841974101,-0.46680248,-2.420616673,198.35,286.68,-4.27,17458,14228,0,45.91879855645977,1392,1,0,0,0,
1670359912292.00,0.017805929,-0.706756445,-1.560531093,175.64,286.68,74.46,17458,14228,0,45.91879855645977,1394,1,0,0,0,
1670359912302.00,0.7875807740434271,-1.676721064,1.1695442329508419,174.73,268.08,104.7,21913,14228,0,57.69689325381269,1396,1,0,0,0,
1670359912309.00,0.8373538678834145,-2.716698981,3.4596131536261283,211.15,275.35,58.2,21913,14228,0,57.69689325381269,1398,1,0,0,0,
1670359912318.00,1.0671284364964069,-2.136692181,1.4096791774046573,281.28,206.24,35.81,31836,14228,0,83.93124424861247,1400,1,0,0,0,
1670359912325.00,1.2069073647740047,-0.746701825,1.629745036221663,194.01,139.1,32.52,31836,14228,0,83.93124424861247,1402,1,0,0,0,
1670359912335.00,1.0066931292056207,-0.256728362,0.45981270265721474,188.81,93.54,13.6,22529,14228,0,59.32546931073063,1404,1,0,0,0,
1670359912342.00,-0.273512195,0.18322817186669837,0.9698836084012701,178.85,103,16.63,22529,14228,0,59.32546931073063,1406,1,1,0,0,
1670359912352.00,-0.643706788,0.023167890471895373,0.8499588006125862,98.97,-84.49,42.16,15606,14228,0,41.02249522,1408,0,1,0,0,
1670359912359.00,-0.643888838,-0.116909077,0.15003900624051728,127.51,-67.33,4.3,15606,14228,0,41.02249522,1410,0,1,0,0,
1670359912368.00,1.1559435999006988,0.9429973732535132,-0.859875277,113.12,115.17,-8.75,12227,14228,0,32.08912103415828,1412,0,1,0,0,
1670359912375.00,2.2957924659852895,0.7328872411559769,0.7002163866161072,107.29,113.76,25.96,12227,14228,0,32.08912103415828,1414,0,1,0,0,
1670359912385.00,3.845659282,-0.857239654,1.3403144203428916,141.08,-76.19,-26.36,8010,14228,0,20.94024890425092,1416,0,1,0,0,
1670359912392.00,2.9055446725363963,-2.187383553,-0.769580889,159.92,-86.26,-115.9,8010,14228,0,20.94024890425092,1418,0,1,0,0,
1670359912402.00,0.5954481215656495,-2.757544379,1.7805305296850429,-47.19,-46.41,-151.45,4031,14228,0,10.420599341789131,1420,0,1,0,0,
1670359912409.00,-0.604631805,-2.227721331,2.240648476178213,-116.82,-91.26,-175.61,4031,14228,0,10.420599341789131,1422,0,1,0,0,
1670359912418.00,-0.994696933,-1.457912693,1.3607722708478254,-54.51,-57.41,-172.14,-736,14228,0,-2.182358553,1424,0,1,0,0,
1670359912425.00,-0.794749008,-0.468115934,0.4709005924975006,-61.6,-19.52,-148.52,-736,14228,0,-2.182358553,1426,0,1,0,0,
1670359912435.00,-0.684789487,0.391672027,-0.088968396,-95.96,53.72,-138.69,-4339,14228,0,-11.70794221,1428,0,0,0,0,
1670359912442.00,-0.274819517,0.8114544802246728,-0.428836776,-104.87,82.89,-133.04,-4339,14228,0,-11.70794221,1430,0,0,0,0,
1670359912452.00,0.23515998078038317,0.9112346389313664,-0.698706634,-121.69,118.85,-63.03,-5722,14228,0,-15.36430696,1432,0,0,0,0,
1670359912459.00,0.38514818402887163,0.8510154538648029,-0.65857991,-136.75,119.1,-48.33,-5722,14228,0,-15.36430696,1434,0,0,0,0,
1670359912468.00,0.825144219,0.7607995452156607,-0.568458315,-148.89,37.32,-53,-5611,14228,0,-15.07084602,1436,0,0,0,0,
1670359912475.00,0.885147034,0.8305891980473821,-0.428343313,-117.67,-82.43,-71.79,-5611,14228,0,-15.07084602,1438,0,0,0,0,
1670359912485.00,0.7651553028437851,0.8403863721092518,-0.27823615,-123.76,-189.27,-86.63,-5586,14228,0,-15.00475121,1440,0,0,0,0,
1670359912492.00,0.19516739165545693,0.5401927084048641,-0.128137905,-145.49,-257.74,-68.61,-5586,14228,0,-15.00475121,1442,0,0,0,1,
1670359912502.00,-0.094818572,-0.12999043,0.21195045036413265,-161.6,-281.13,2.89,-5481,14228,0,-14.72715302,1444,0,0,0,1,
1670359912509.00,-0.084804578,-0.690161837,0.7920279605012599,-198.57,-218.59,64.52,-5481,14228,0,-14.72715302,1446,0,0,0,1,
1670359912518.00,-0.134792627,-0.910320267,0.9020935565810928,-226.76,-141.84,82.77,-4526,14228,0,-12.20233137,1448,0,0,0,1,
1670359912525.00,-0.224784685,-1.040464257,0.6021459281902541,-235.97,-156.17,105.65,-4526,14228,0,-12.20233137,1450,0,0,0,1,
1670359912535.00,-0.364782655,-0.390592023,0.2221834799934001,-257.84,-178.26,102.26,-3255,14228,0,-8.842071357,1452,0,0,1,1,
1670359912542.00,-0.484788342,-0.000701477,0.11220439182280217,-273.16,-169.91,94.25,-3255,14228,0,-8.842071357,1454,0,0,1,1,
1670359912552.00,-0.8848034,1.0092096295011979,-0.757793265,-286.72,-163.67,61.18,-2866,14228,0,-7.813636153,1456,0,0,1,1,
1670359912559.00,-0.854829259,1.3091434753904052,-1.097811369,-286.72,-166.11,60.49,-2866,14228,0,-7.813636153,1458,0,0,1,1,
1670359912568.00,0.39513291478330576,2.119101915,-0.987851569,-286.72,-165.46,77.99,-1047,14228,0,-3.004577959,1460,0,0,1,1,
1670359912575.00,0.5050821339415672,2.5890862318419283,-0.897915155,-285.97,-144.61,70.71,-1047,14228,0,-3.004577959,1462,0,0,1,1,
1670359912585.00,0.2650174007182591,3.4990968881632183,-0.308003044,-190.54,-79.03,66.96,-1116,14228,0,-3.186999627,1464,0,0,1,0,
1670359912592.00,-0.48506239,2.9091332948698336,-0.008115863,-15.8,-24.27,107.07,-1116,14228,0,-3.186999627,1466,0,0,1,0,
1670359912602.00,-0.815158376,1.5591936984693087,-0.428254064,117.57,-3.31,153.9,-1093,14228,0,-3.126192404,1468,0,0,1,0,
1670359912609.00,-1.165271548,0.339275332,-0.758417986,183.34,16.01,117.89,-1093,14228,0,-3.126192404,1470,0,0,1,0,
1670359912618.00,-1.61540258,-0.330625206,-1.028607792,216.98,21.57,74.57,-1106,14228,0,-3.160561704,1472,0,0,1,0,
1670359912625.00,-1.895551668,-0.160511563,-1.038823362,212.8,72.88,64.79,-1106,14228,0,-3.160561704,1474,0,0,0,0,
1670359912635.00,-1.735718396,0.23961260557958564,-0.959064206,183.15,165.16,65.98,-149,14228,0,-0.630452473,1476,1,0,0,0,
1670359912642.00,-1.695901661,0.21974365905885052,-1.069329436,178.62,207.55,62.53,-149,14228,0,-0.630452473,1478,1,0,0,0,
1670359912652.00,-1.886099654,-0.430122064,-2.799617716,190.94,286.68,55.09,1630,14228,0,4.072854029029455,1480,1,0,0,0,
1670359912659.00,-1.576309863,-0.529988222,-2.879927074,187.43,286.68,61.47,1630,14228,0,4.072854029029455,1482,1,0,0,0,
1670359912668.00,-0.22652912,-0.339858375,-1.010254678,171.25,286.68,74.63,5383,14228,0,13.995006531647975,1484,1,0,0,0,
1670359912675.00,1.433246198557875,-0.829735912,2.129403089176136,147.97,286.68,78.08,5383,14228,0,13.995006531647975,1486,1,0,0,0,
1670359912685.00,2.0130197583070615,-1.799623982,2.439050079252746,209.59,280.48,15.51,7190,14228,0,18.772339218093933,1488,1,0,0,0,
1670359912692.00,0.802794853,-1.96952533,1.398689720282828,281.07,85.77,-60.28,7190,14228,0,18.772339218093933,1490,1,0,0,0,
1670359912702.00,0.2025742533732258,-1.639442106,1.2083247181775079,278.35,-63.45,-26.35,8439,14228,0,22.07443580103305,1492,1,0,0,0,
1670359912709.00,0.04236035,-1.069375774,1.3479571189081618,257.23,-76.15,1.42,8439,14228,0,22.07443580103305,1494,1,0,0,0,
1670359912718.00,-0.897844606,-0.489327193,0.5875884381005304,221.38,-51.53,43.4,4520,14228,0,11.713413776582753,1496,0,1,0,0,
1670359912725.00,-0.878038302,0.2007031961029565,0.63721976,180.43,-16.43,55.68,4520,14228,0,11.713413776582753,1498,0,1,0,0,
1670359912735.00,-0.108218207,0.23071514636742504,-0.143148145,78.01,113.71,39.88,965,14228,0,2.314732149402139,1500,0,1,0,0,
1670359912742.00,0.14161843517295375,0.2507084271101778,-1.433514642,70.7,184.05,33.08,965,14228,0,2.314732149402139,1502,0,1,0,0,
1670359912752.00,3.0814744168528816,-0.749317241,1.6661209472336604,78.04,187.83,22.41,-24,14228,0,-0.299978435,1504,0,1,0,0,
1670359912759.00,3.1813521548756496,-0.569362114,0.13575934422334934,129.06,76.64,-60.67,-24,14228,0,-0.299978435,1506,0,1,0,0,
1670359912768.00,2.8412532052316894,-0.489426296,-0.514598833,198.04,85.3,-163.99,-2341,14228,0,-6.425645195,1508,0,1,0,0,
1670359912775.00,1.6311780127009001,-2.109509639,1.8750468889064869,101.82,65.69,-193.95,-2341,14228,0,-6.425645195,1510,0,1,0,0,
1670359912785.00,0.15112603610077255,-2.409611574,2.1946967609167287,-65.06,11.54,-164.34,-3396,14228,0,-9.214846072,1512,0,1,0,0,
1670359912792.00,-0.518903875,-1.799730867,1.5443505455214097,-69.35,-5.07,-163.98,-3396,14228,0,-9.214846072,1514,0,1,0,0,
1670359912802.00,-0.438913064,-1.019865497,0.5840073334818605,-43.96,0.12,-157.21,-4903,14228,0,-13.19904107,1516,0,1,0,0,
1670359912809.00,-0.428902798,-0.280012772,-0.456334328,-64.47,40.15,-139.15,-4903,14228,0,-13.19904107,1518,0,0,0,0,
1670359912818.00,-0.36887418,0.4498304097468576,-1.106676115,-93,83,-109.17,-5678,14228,0,-15.2479801,1520,0,0,0,0,
1670359912825.00,0.21117184246724663,0.8096672728397711,-0.937019599,-112.53,99.58,-84.77,-5678,14228,0,-15.2479801,1522,0,0,0,0,
1670359912835.00,0.5412343933934866,0.8095009272287206,-0.647366044,-200.16,121.41,-74.58,-6075,14228,0,-16.29756564,1524,0,0,0,0,
1670359912842.00,0.5213125471356335,0.90933422,-0.547716374,-205.32,68.52,-75.11,-6075,14228,0,-16.29756564,1526,0,0,0,0,
1670359912852.00,0.5814052183498354,1.429169659986539,-0.178071236,-174.83,-60.69,-83.25,-6124,14228,0,-16.42711147,1528,0,0,0,0,
1670359912859.00,0.49151111414712756,1.5890093348767604,-0.228431085,-136.68,-189.6,-80.12,-6124,14228,0,-16.42711147,1530,0,0,0,0,
1670359912868.00,0.38162873056482977,1.1188548223867758,-0.13879625,-130.78,-235.43,-52.39,-5895,14228,0,-15.82168303,1532,0,0,0,0,
1670359912875.00,0.061756379,0.32870717702990365,-0.039166982,-137.47,-244.54,-28.61,-5895,14228,0,-15.82168303,1534,0,0,0,1,
1670359912885.00,-0.16810775,-0.491432929,0.3904565130731105,-158.09,-204.72,11.82,-6022,14228,0,-16.15744465,1536,0,0,0,1,
1670359912892.00,-0.237965505,-0.301564967,0.700073996,-189.17,-129.55,43.9,-6022,14228,0,-16.15744465,1538,0,0,0,1,
1670359912902.00,-0.377818691,-0.61168835,0.5996850913684395,-204.88,-97.83,67.39,-5291,14228,0,-14.22483248,1540,0,0,0,1,
1670359912909.00,-0.307669017,-0.861802324,0.40928921323329287,-233.21,-95.05,76.28,-5291,14228,0,-14.22483248,1542,0,0,0,1,
1670359912918.00,-0.317518068,-0.441905902,0.17888555934833594,-270.04,-114.62,67.43,-5128,14228,0,-13.79389434,1544,0,0,0,1,
1670359912925.00,-0.337367301,-0.071997854,-0.051526827,-281.7,-125.29,65.11,-5128,14228,0,-13.79389434,1546,0,0,1,1,
1670359912935.00,-0.587218035,0.9279231990823076,-0.771948962,-286.72,-141.44,86.97,-4135,14228,0,-11.16860858,1548,0,0,1,1,
1670359912942.00,-0.767071422,1.1378585945733144,-0.952381778,-286.72,-138.29,92.81,-4135,14228,0,-11.16860858,1550,0,0,1,1,
1670359912952.00,-0.556928396,1.8278093887238431,-1.202825971,-286.68,-105.8,101.48,-550,14228,0,-1.690613185,1552,0,0,1,0,
1670359912959.00,-0.216789645,1.8677761479809438,-1.27328186,-255.26,-26.93,111.3,-550,14228,0,-1.690613185,1554,0,0,1,0,
1670359912968.00,0.493344323,2.4077587821921544,-0.893749324,-161.18,56.05,104.86,4167,14228,0,10.780155094615171,1556,0,0,1,0,
1670359912975.00,1.2134730317207032,2.8677563992070527,0.035772184,-25.4,53.21,82.8,4167,14228,0,10.780155094615171,1558,0,0,1,0,
1670359912985.00,1.4535958059326408,1.2077671983821203,0.685283478,99.65,-17.12,78.99,10940,14228,0,28.68656034381188,1560,0,0,1,0,
1670359912992.00,0.13371159835162386,-0.632211442,-0.065214576,180.97,-57.91,55.03,10940,14228,0,28.68656034381188,1562,0,0,1,0,
1670359913002.00,-2.336180945,-0.152182602,-0.51572118,221.35,-128.17,16.14,12651,14228,0,33.210088969439454,1564,0,0,1,0,
1670359913009.00,-2.566083075,0.15785054915118935,-0.726235523,208.67,-27.6,9.69,12651,14228,0,33.210088969439454,1566,0,0,1,0,
1670359913019.00,-2.615995423,0.21788487938104295,-1.626756615,210.81,100.69,-5.69,11170,14228,0,29.29463257285592,1568,0,0,0,0,
1670359913026.00,-1.985917696,0.017917241,-2.497283082,179.96,171.5,4.44,11170,14228,0,29.29463257285592,1570,0,0,0,0,
1670359913036.00,-1.335848662,0.037944437794947605,-2.7578129,149.59,277.65,-4.59,15593,14228,0,40.98812591660271,1572,1,0,0,0,
1670359913043.00,-0.145786331,-0.012036756,-1.798343173,169.56,286.68,7.21,15593,14228,0,40.98812591660271,1574,1,0,0,0,
1670359913052.00,0.084271762,-1.18202955,0.9311298548614915,185.69,286.68,63.33,20822,14228,0,54.81251585430382,1576,1,0,0,0,
1670359913059.00,0.8443282590411982,-2.262036982,2.5206103892440113,188.16,286.68,128.07,20822,14228,0,54.81251585430382,1578,1,0,0,0,
1670359913069.00,0.8343857300794792,-2.912061614,1.6801024518440415,286.5,124.82,41.23,25735,14228,0,67.80146742514442,1580,1,0,0,0,
1670359913076.00,0.7344465139719256,-2.272105202,1.7796094269635159,274.25,65.73,37,25735,14228,0,67.80146742514442,1582,1,0,0,0,
1670359913086.00,0.6945126473321868,-0.602168574,1.1791339658157765,204.88,4.13,41.87,25886,14228,0,68.20068006247334,1584,1,0,0,0,
1670359913093.00,0.4945858709324483,-0.032251805,0.5786780907298456,170.61,30.27,44.76,25886,14228,0,68.20068006247334,1586,1,0,0,0,
1670359913102.00,-0.275332315,0.7176454013355389,0.7882433507282864,90.54,20.44,89,16887,14228,0,44.40919315305045,1588,1,1,0,0,
1670359913109.00,-0.015240544,0.3475233836780048,0.2978309601367993,98.68,-73.77,36.31,16887,14228,0,44.40919315305045,1590,1,1,0,0,
1670359913119.00,0.7648625078064958,0.41738234658309986,-0.832558081,111.73,-18.73,-37.26,12518,14228,0,32.85846459351399,1592,0,1,0,0,
1670359913126.00,2.1049780520154027,-0.312777662,1.467077137096444,69.12,47.12,-16.07,12518,14228,0,32.85846459351399,1594,0,1,0,0,
1670359913136.00,3.3651069008729806,-0.892956656,0.5867374370592777,146.54,-142.08,-118.56,8163,14228,0,21.34474912618021,1596,0,1,0,0,
1670359913143.00,2.0052490897596087,-1.453154528,0.7464234213589467,147.09,-72.31,-163.28,8163,14228,0,21.34474912618021,1598,0,1,0,0,
1670359913152.00,0.38540371170241794,-2.133370816,1.6761353625554978,0.86,-12.69,-160.1,3092,14228,0,7.938078371909359,1600,0,1,0,0,
1670359913159.00,-0.334430859,-1.993604483,1.675873117,-38.69,-11.8,-170.01,3092,14228,0,7.938078371909359,1602,0,1,0,0,
1670359913169.00,-0.544256542,-1.593853766,1.0256360097307509,-61.77,31.54,-180.07,-865,14228,0,-2.52340776,1604,0,1,0,0,
1670359913176.00,-0.494075229,-1.244116165,0.49542281235338553,-70.37,42.6,-167.24,-865,14228,0,-2.52340776,1606,0,1,0,0,
1670359913186.00,-0.263888651,0.075611433,-0.394768104,-105.15,80.47,-145.98,-3284,14228,0,-8.918741334,1608,0,0,0,0,
1670359913193.00,-0.013698377,0.47533251645420904,-0.474938536,-138.76,94.06,-131.48,-3284,14228,0,-8.918741334,1610,0,0,0,0,
1670359913202.00,0.2864941238912804,1.115050652044239,-0.405090239,-183.71,126.69,-86.88,-5065,14228,0,-13.62733542,1612,0,0,0,0,
1670359913209.00,0.5466873781923309,1.0047692214713295,-0.305224821,-181.22,74.08,-44.28,-5065,14228,0,-13.62733542,1614,0,0,0,0,
1670359913219.00,0.5068798114277533,0.9844912657854883,-0.615343727,-127.77,-44.85,-46.27,-5430,14228,0,-14.59231961,1616,0,0,0,0,
1670359913226.00,0.16706968415732595,1.0542194280541586,-0.615448228,-99.98,-167.17,-71.62,-5430,14228,0,-14.59231961,1618,0,0,0,0,
1670359913236.00,-0.392744887,0.8639559492324812,-0.135539397,-103.87,-251.88,-85.28,-5641,14228,0,-15.15015979,1620,0,0,0,0,
1670359913243.00,-0.862565816,0.34370269446040586,0.124381864,-121.4,-279.77,-73.84,-5641,14228,0,-15.15015979,1622,0,0,1,0,
1670359913252.00,-0.972394874,0.1134612327323764,0.3043147325640344,-133.61,-233.46,-39.37,-5230,14228,0,-14.06356115,1624,0,0,1,0,
1670359913259.00,-1.002233547,-0.016767042,0.40425835230243085,-142.64,-196.25,-19.63,-5230,14228,0,-14.06356115,1626,0,0,1,0,
1670359913269.00,-0.812082961,-0.586980791,0.3842117645872596,-178.89,-104.96,27.78,-5041,14228,0,-13.56388441,1628,0,0,1,0,
1670359913276.00,-0.701943874,-0.797178617,0.40417386793445076,-204.12,-75.48,31.02,-5041,14228,0,-13.56388441,1630,0,0,1,0,
1670359913286.00,-0.601816712,-0.727358937,0.11414341226915309,-254.02,-31.01,26.82,-4338,14228,0,-11.70529842,1632,0,0,1,0,
1670359913293.00,-0.691701614,-0.517519903,-0.175880968,-282.2,14.45,15.54,-4338,14228,0,-11.70529842,1634,0,0,1,1,
1670359913302.00,-0.411598459,0.082340584,-0.495900677,-286.72,73.54,25.58,-2923,14228,0,-7.964332314,1636,0,0,1,1,
1670359913309.00,0.2984930876483099,1.0122247603971835,-0.825917042,-286.72,119.92,22.54,-2923,14228,0,-7.964332314,1638,0,0,1,1,
1670359913319.00,0.6085734636183052,1.8221347720839187,-1.145931191,-286.72,77.13,21.59,-582,14228,0,-1.775214539,1640,0,0,1,1,
1670359913326.00,0.6086430424977339,2.822072367,-0.785943942,-278.35,-40.83,35.39,-582,14228,0,-1.775214539,1642,0,0,1,1,
1670359913336.00,-0.151297969,3.4220385517215157,0.8940442122414702,-179.31,-92.43,63.65,377,14228,0,0.7601822768895649,1644,0,0,0,1,
1670359913343.00,-0.821249489,2.4620332980770616,0.17403293496357455,15.02,87.41,89.39,377,14228,0,0.7601822768895649,1646,0,0,0,1,
1670359913352.00,-0.58121139,1.2520554636294923,-0.90597813,118.21,242.07,126.38,-1598,14228,0,-4.461307516,1648,0,0,0,1,
1670359913359.00,-0.581183351,0.8921029781029538,-0.995989322,134.89,245.78,131.43,-1598,14228,0,-4.461307516,1650,0,0,0,1,
1670359913369.00,-0.511164808,0.24217315782127918,-0.79600076,194.57,182.3,113.42,-1761,14228,0,-4.892245661,1652,0,0,0,1,
1670359913376.00,-0.331154971,0.21226296982510762,-0.736012237,212.03,196.96,89.17,-1761,14228,0,-4.892245661,1654,0,0,0,0,
1670359913386.00,-0.161152864,0.5723691892283652,-1.586023186,236.99,232.75,23.27,-920,14228,0,-2.668816336,1656,1,0,0,0,
1670359913393.00,-0.47115737,0.44248844482688593,-1.886032623,222.59,219.78,-14.83,-920,14228,0,-2.668816336,1658,1,0,0,0,
1670359913402.00,-1.621167213,-0.037382791,-2.846038974,187.36,216.65,6.3,1615,14228,0,4.033197144526583,1660,1,0,0,0,
1670359913409.00,-1.621180819,-0.38724816,-2.12603987,148.91,212.38,85.74,1615,14228,0,4.033197144526583,1662,1,0,0,0,
1670359913419.00,0.11880383648864518,-0.867111298,0.8239679056254032,152.1,174.99,129.98,7838,14228,0,20.48551663,1664,1,0,0,0,
1670359913426.00,2.0287891319320384,-2.016975652,3.703988041465818,188.08,248.22,82.5,7838,14228,0,20.48551663,1666,1,0,0,0,
1670359913436.00,2.1887773737759817,-2.316844241,1.734023974569747,286.55,190.8,-16.13,12063,14228,0,31.65553909692688,1668,1,0,0,0,
1670359913443.00,1.2387703439298057,-1.996719407,1.4040783501215184,286.68,124.13,-14.36,12063,14228,0,31.65553909692688,1670,1,0,0,0,
1670359913452.00,0.068769166,-1.536602682,0.954153,278.59,-92.81,7.87,13434,14228,0,35.280178340489364,1672,1,0,0,0,
1670359913459.00,-0.441225486,-1.196494836,0.7742491654093738,233.7,-90.74,32.8,13434,14228,0,35.280178340489364,1674,1,0,0,0,
1670359913469.00,-0.661213068,0.32360396028760696,1.8443676391764252,84.32,-112.5,91.62,10207,14228,0,26.748660587771543,1676,1,1,0,0,
1670359913476.00,-0.34119293,0.4536938727532602,1.2745087515864428,81.61,-105.05,98.22,10207,14228,0,26.748660587771543,1678,1,1,0,0,
1670359913486.00,0.1288357473301978,0.35377512400945216,-0.155327667,120.06,-12.9,31.75,6414,14228,0,16.720756393145365,1680,0,1,0,0,
1670359913493.00,1.218873869329438,0.22384782504588063,-0.885142144,142.91,92.29,-41.9,6414,14228,0,16.720756393145365,1682,0,1,0,0,
1670359913502.00,3.3789221664864937,-0.47608803,0.045064733,127.22,1.8,-84.97,5097,14228,0,13.238881933793222,1684,0,1,0,0,
1670359913509.00,3.178980766139678,-0.666032463,-0.854707493,147.71,-152.64,-146.78,5097,14228,0,13.238881933793222,1686,0,1,0,0,
1670359913519.00,1.6690488063577034,-1.065985362,1.325540860013317,125.21,-147.81,-165.22,1692,14228,0,4.236769151641325,1688,0,1,0,0,
1670359913526.00,0.11912441247099884,-2.075946316,1.8758094395665048,3.08,-164.25,-162.15,1692,14228,0,4.236769151641325,1690,0,1,0,0,
1670359913536.00,-1.140794925,-1.865914423,1.506097554948817,-65.82,-71.74,-188.96,-793,14228,0,-2.333054714,1692,0,1,0,0,
1670359913543.00,-1.080711838,-1.155888131,0.6564039569561508,-65.28,-65.07,-177.65,-793,14228,0,-2.333054714,1694,0,1,0,0,
1670359913552.00,-0.730628715,-0.285865254,-0.323273107,-79.11,8.39,-147.66,-3878,14228,0,-10.48915396,1696,0,0,0,0,
1670359913559.00,-0.590547586,0.034156833,-0.712935633,-90.68,34.13,-138.35,-3878,14228,0,-10.48915396,1698,0,0,0,0,
1670359913569.00,-0.17047017,0.9041809349738699,-0.712585586,-126.96,89.3,-78.28,-4899,14228,0,-13.1884659,1700,0,0,0,0,
1670359913576.00,0.039602017,0.8942097944205505,-0.412224725,-177.58,136.8,-56.39,-4899,14228,0,-13.1884659,1702,0,0,0,0,
1670359913586.00,0.3096675510320881,0.7442459159715781,-0.371854572,-168.21,70.74,-40.49,-5228,14228,0,-14.05827357,1704,0,0,0,0,
1670359913593.00,0.30972499343832693,0.8142914844212067,-0.471476452,-124.65,-52.06,-55.19,-5228,14228,0,-14.05827357,1706,0,0,0,0,
1670359913602.00,0.3197728222257682,0.964348356,-0.421091515,-105.09,-166.82,-65.07,-5231,14228,0,-14.06620494,1708,0,0,0,0,
1670359913609.00,0.079809403,0.7144180550029061,-0.020700754,-108.63,-232.19,-53.45,-5231,14228,0,-14.06620494,1710,0,0,0,0,
1670359913619.00,-0.430166983,0.5145017767317033,0.049694962,-115.41,-264.02,-43.22,-4452,14228,0,-12.00669074,1712,0,0,1,0,
1670359913626.00,-0.770158043,0.3246004341360366,0.31009480513046184,-118.61,-228.67,-7.92,-4452,14228,0,-12.00669074,1714,0,0,1,0,
1670359913636.00,-0.740165342,0.11471473246725289,0.4404979120176824,-121.9,-197.39,36.59,-4569,14228,0,-12.31601444,1716,0,0,1,0,
1670359913643.00,-0.710190194,-0.10515475,0.3409033158819542,-124.53,-187.75,50.96,-4569,14228,0,-12.31601444,1718,0,0,1,0,
1670359913652.00,-0.630233633,-0.515007472,0.041309917,-201.07,-139.65,53.99,-4848,14228,0,-13.05363249,1720,0,0,1,0,
1670359913659.00,-0.67029641,-0.544842835,0.21171650250714527,-242.96,-118.64,43.65,-4848,14228,0,-13.05363249,1722,0,0,1,0,
1670359913669.00,-0.480379015,-0.30466009,0.4221217782683548,-286.6,-90.26,29.49,-3917,14228,0,-10.59226186,1724,0,0,1,1,
1670359913676.00,-0.440481699,-0.204458319,0.2125243573850185,-286.72,-50.97,4.9,-3917,14228,0,-10.59226186,1726,0,0,1,1,
1670359913686.00,-0.320604504,0.10576352717257773,-0.467077242,-286.72,14.13,-10.67,-2878,14228,0,-7.84536166,1728,0,0,1,1,
1670359913693.00,-0.100747311,0.9860065370441076,-0.966684509,-286.72,89.81,-8.05,-2878,14228,0,-7.84536166,1730,0,0,1,1,
1670359913702.00,0.32909010965205643,1.886271665850749,-1.416298764,-282.83,111.97,30.13,1833,14228,0,4.609543866,1732,0,0,1,1,
1670359913709.00,0.20890800345472105,2.7265594596461873,-1.295920968,-223.67,-1.62,76.42,1833,14228,0,4.609543866,1734,0,0,1,1,
1670359913719.00,-0.491293422,2.8968697369134446,0.20444836241939932,-127.59,-60.5,114.99,11142,14228,0,29.220606388450552,1736,0,0,0,1,
1670359913726.00,-1.031513946,1.7272013632240024,0.2548090447057853,-30.76,60.49,138.08,11142,14228,0,29.220606388450552,1738,0,0,0,1,
1670359913736.00,-0.691753183,0.7375522608415805,-0.304838989,160.91,187.63,143.08,9825,14228,0,25.73873192909841,1740,0,0,0,1,
1670359913743.00,-0.562010468,0.5579196490308739,-0.534495789,170.43,201.09,128.09,9825,14228,0,25.73873192909841,1742,0,0,0,1,
1670359913752.00,-0.662284842,0.3883003267601032,-0.854161315,189.78,212.81,104.5,5530,14228,0,14.38364399977612,1744,0,0,0,1,
1670359913759.00,-0.462575091,0.47869084216048957,-0.953835314,197.93,221.49,99.79,5530,14228,0,14.38364399977612,1746,0,0,0,0,
1670359913769.00,-0.342879775,0.5190875504898341,-1.523517211,216.58,244.29,67.73,7873,14228,0,20.57804935912469,1748,1,0,0,0,
1670359913776.00,-0.623197253,0.10948662819432875,-2.273205982,252.03,283.98,8.9,7873,14228,0,20.57804935912469,1750,1,0,0,0,
1670359913786.00,-1.173525679,-0.510115882,-2.732899963,244.95,281.05,-23.98,13078,14228,0,34.338988281621205,1752,1,0,0,0,
1670359913793.00,-1.483862914,-0.939723942,-2.072596649,199.47,262.43,27.38,13078,14228,0,34.338988281621205,1754,1,0,0,0,
1670359913802.00,-0.24420642,-1.609341328,0.067707344,149.84,213.31,103.06,20859,14228,0,54.91033617,1756,1,0,0,0,
1670359913809.00,0.9654466989198331,-2.598971403,3.378015947245745,130.37,210.73,76.35,20859,14228,0,54.91033617,1758,1,0,0,0,
1670359913819.00,1.585099413812385,-3.168616843,2.508332957957824,243.77,246.9,14.72,28596,14228,0,75.36535719599217,1760,1,0,0,0,
1670359913826.00,1.0147544307685623,-1.678279394,1.6486614213636244,277.61,158.04,7.18,28596,14228,0,75.36535719599217,1762,1,0,0,0,
1670359913836.00,0.2544140204622089,-0.527959846,0.9990034791613027,195.48,37.3,-30,27533,14228,0,72.55500598088865,1764,1,0,0,0,
1670359913843.00,-0.305919898,0.032341692,0.6893605749556901,174.9,49.54,-23.42,27533,14228,0,72.55500598088865,1766,1,0,0,0,
1670359913852.00,-0.406245545,0.8126254154339888,1.5297336688719299,94.73,-40.56,90.8,17362,14228,0,45.66499449564139,1768,1,1,0,0,
1670359913859.00,-0.296561095,0.532891514,1.1701232952781648,124.3,-56.2,56.06,17362,14228,0,45.66499449564139,1770,1,1,0,0,
1670359913869.00,0.3131353802625184,0.11314001088475303,-0.329470443,161.59,22.5,-2.51,12243,14228,0,32.13142171096134,1772,0,1,0,0,
1670359913876.00,1.6528458326999793,0.2533707481795036,-0.92904773,153.89,66.13,-68.41,12243,14228,0,32.13142171096134,1774,0,1,0,0,
1670359913886.00,2.3125719826722055,0.24358344756993236,0.1613912292319329,148.37,20.45,-64.6,8298,14228,0,21.70166108670606,1776,0,1,0,0,
1670359913893.00,3.572314959923689,-0.996222232,0.1518463566106099,152.98,-99.01,-82.18,8298,14228,0,21.70166108670606,1778,0,1,0,0,
1670359913902.00,2.2920749618357017,-1.746046551,-0.287682359,125.34,-64.23,-133.6,5145,14228,0,13.36578396420241,1780,0,1,0,0,
1670359913909.00,0.7018511330590798,-1.945889433,1.6728050419784963,-67.52,-82.42,-155.93,5145,14228,0,13.36578396420241,1782,0,1,0,0,
1670359913919.00,-0.238358203,-1.985750199,2.283308320709155,-120.08,-63.62,-202.44,-934,14228,0,-2.705829429,1784,0,1,0,0,
1670359913926.00,-0.648555106,-1.565627445,1.553826745341148,-87.61,-43.92,-204.22,-934,14228,0,-2.705829429,1786,0,1,0,0,
1670359913936.00,-0.778741641,-0.865519053,0.5143589150124938,-34.75,-42.09,-184.14,-3657,14228,0,-9.904875862,1788,0,1,0,0,
1670359913943.00,-0.758919678,-0.435422328,0.034902875,-49.4,-35.8,-167.48,-3657,14228,0,-9.904875862,1790,0,0,0,0,
1670359913952.00,-0.549090804,0.5046657920265142,-0.434543613,-83.52,12.46,-138.88,-5094,14228,0,-13.7040054,1792,0,0,0,0,
1670359913959.00,-0.299256341,0.7847484886365612,-0.60398282,-101.97,57.51,-101.41,-5094,14228,0,-13.7040054,1794,0,0,0,0,
1670359913969.00,-0.029417402,0.9248288325718401,-0.543416899,-138.99,104.61,-71.67,-5939,14228,0,-15.93800989,1796,0,0,0,0,
1670359913976.00,0.2404250162003558,1.0349096192121376,-0.382847804,-155.51,47.62,-57.01,-5939,14228,0,-15.93800989,1798,0,0,0,0,
1670359913986.00,0.4602699292177044,1.3449932778572242,-0.30227729,-124.11,-36.62,-61.9,-6148,14228,0,-16.49056248,1800,0,0,0,0,
1670359913993.00,1.0201162551881195,1.2750818050990496,-0.111706956,-110.34,-105.03,-65.57,-6148,14228,0,-16.49056248,1802,0,0,0,0,
1670359914002.00,0.2599627120750207,-0.314823249,0.2588617048819298,-137.44,-235.29,-45.74,-5681,14228,0,-15.25591148,1804,0,0,0,1,
1670359914009.00,-0.11019221,-0.714720638,0.38942721753420173,-179.25,-250.06,-7.56,-5681,14228,0,-15.25591148,1806,0,0,0,1,
1670359914019.00,-0.170350158,-1.004609129,0.619988034,-231.69,-201.98,64.08,-5048,14228,0,-13.58239095,1808,0,0,0,1,
1670359914026.00,-0.290512788,-0.924487262,0.6705424446985933,-250.56,-124.52,82.69,-5048,14228,0,-13.58239095,1810,0,0,0,1,
1670359914035.00,-0.290681693,-0.894353234,0.3910885275748115,-254.73,-134.46,92.41,-4341,14228,0,-11.7132298,1812,0,0,0,1,
1670359914042.00,-0.470858359,-0.384204883,-0.108375849,-271.07,-149.75,75.14,-4341,14228,0,-11.7132298,1814,0,0,1,1,
1670359914052.00,-0.711044132,0.37596023061920203,-0.587852932,-286.49,-166.15,61.49,-3968,14228,0,-10.72709527,1816,0,0,1,1,
1670359914059.00,-0.991240155,1.116144650389143,-1.007344925,-286.72,-173.94,56.19,-3968,14228,0,-10.72709527,1818,0,0,1,1,
1670359914069.00,-0.921447289,1.8863507671065387,-1.276853807,-286.72,-153.91,73.63,-3211,14228,0,-8.725744496,1820,0,0,1,1,
1670359914076.00,-0.571666059,2.276580531,-1.136381193,-286.33,-131.09,88.98,-3211,14228,0,-8.725744496,1822,0,0,1,1,
1670359914085.00,0.17810332079495314,3.3868351784799375,-0.775928257,-204.93,-33.49,60.99,-114,14228,0,-0.537919743,1824,0,0,1,0,
1670359914092.00,0.15786081296047844,3.557114961385525,-0.245495768,-140.03,-0.65,44.08,-114,14228,0,-0.537919743,1826,0,0,1,0,
1670359914102.00,-0.292393573,2.037418945641904,0.2049157878782432,13.41,29.89,71.14,-2279,14228,0,-6.261730072,1828,0,0,1,0,
1670359914109.00,-0.402659817,1.327745033576175,-0.184693951,143.14,50.18,124.61,-2279,14228,0,-6.261730072,1830,0,0,1,0,
1670359914119.00,-0.692937816,0.24809024459735807,-0.884325292,198.64,31.18,107.21,-3774,14228,0,-10.21419956,1832,0,0,1,0,
1670359914126.00,-0.983227289,-0.271548911,-1.143978413,215.61,0.84,71.34,-3774,14228,0,-10.21419956,1834,0,0,1,0,
1670359914135.00,-1.46352767,-0.261176108,-1.013653204,206.06,26.77,50.42,-2093,14228,0,-5.769984705,1836,0,0,1,0,
1670359914142.00,-1.793837974,-0.290795008,-0.96334917,182.18,103.29,58.19,-2093,14228,0,-5.769984705,1838,0,0,0,0,
1670359914152.00,-1.77415666,-0.220409175,-1.583065389,170.44,185.72,73.63,-106,14228,0,-0.516769404,1840,1,0,0,0,
1670359914159.00,-1.59448153,-0.28002207,-2.79280044,161.89,276.94,64.45,-106,14228,0,-0.516769404,1842,1,0,0,0,
1670359914169.00,-0.874809725,-0.429637046,-2.502552201,124.99,286.68,47.41,1191,14228,0,2.912229209245407,1844,1,0,0,0,
1670359914176.00,-0.275137832,-0.319257334,-1.832317656,127.17,286.68,32.79,1191,14228,0,2.912229209245407,1846,1,0,0,0,
1670359914185.00,1.7245378825855657,-0.568886021,3.167907009030249,141.59,286.68,-12.09,8424,14228,0,22.034778916530183,1848,1,0,0,0,
1670359914192.00,1.5642211075465988,-1.158526011,2.8081258138616807,188.33,281.71,-30.19,8424,14228,0,22.034778916530183,1850,1,0,0,0,
1670359914202.00,0.8239151472751023,-1.528179927,1.4083422350802066,284.05,109.66,-86.42,9439,14228,0,24.718228101224508,1852,1,0,0,0,
1670359914209.00,0.2536228181251903,-1.787849956,1.5385588795805727,285.65,-67.91,-51.34,9439,14228,0,24.718228101224508,1854,1,0,0,0,
1670359914219.00,-0.136653408,-1.367537715,1.178777601421894,264.24,-88.72,-13.79,7192,14228,0,18.777626802694314,1856,1,0,0,0,
1670359914226.00,-1.106911176,-1.067244208,1.018999670847439,192.37,-28.97,49.06,7192,14228,0,18.777626802694314,1858,1,1,0,0,
1670359914235.00,-0.937148025,-0.326969903,0.8892258692260268,105.87,29.37,57.84,5813,14228,0,15.131837220730302,1860,1,1,0,0,
1670359914242.00,-0.127361222,-0.036714896,-0.520543406,88.38,151.94,43.64,5813,14228,0,15.131837220730302,1862,0,1,0,0,
1670359914252.00,0.5024522205059354,0.39352090294490394,-1.010307946,103.4,286.12,68.56,2550,14228,0,6.505142945205591,1864,0,1,0,0,
1670359914259.00,3.252295296535923,0.15373760398652067,1.0199325007995468,101.66,279.83,92.93,2550,14228,0,6.505142945205591,1866,0,1,0,0,
1670359914269.00,4.522170525529566,-0.266064738,-0.689821722,196.18,-27.63,-63.43,91,14228,0,0.004057679,1868,0,1,0,0,
1670359914276.00,3.4620793553036853,-0.91588608,-0.669570221,201.85,-55.19,-137.81,91,14228,0,0.004057679,1870,0,1,0,0,
1670359914285.00,0.9520218507672054,-2.345726215,1.8406874440836611,20.61,-16.16,-185.43,-1968,14228,0,-5.439510667,1872,0,1,0,0,
1670359914292.00,0.3519969226754648,-2.165584488,2.1609516181466546,-138.45,-40.92,-178.7,-1968,14228,0,-5.439510667,1874,0,1,0,0,
1670359914302.00,-0.327997146,-1.735459535,1.8012221956425114,-103.14,-96.6,-186.11,-4661,14228,0,-12.55924333,1876,0,1,0,0,
1670359914309.00,-0.587962258,-0.865349216,0.7914983807777511,-54.21,-82.31,-197.73,-4661,14228,0,-12.55924333,1878,0,1,0,0,
1670359914319.00,-0.877900247,0.004749227,-0.09822123,-71.68,-20.04,-158.51,-5938,14228,0,-15.9353661,1880,0,0,0,0,
1670359914326.00,-0.64781273,0.44483889988415404,-0.747938363,-80.32,-4.7,-115.31,-5938,14228,0,-15.9353661,1882,0,0,0,0,
1670359914335.00,-0.167701056,0.87492297,-0.947654757,-112.2,58.71,-81.92,-6233,14228,0,-16.71528483,1884,0,0,0,0,
1670359914342.00,0.022433639990489793,1.045004446567976,-0.537371939,-186.63,84.55,-76.49,-6233,14228,0,-16.71528483,1886,0,0,0,0,
1670359914352.00,0.002590332,1.3550860242018208,-0.037091165,-192.49,-19.95,-74.14,-6492,14228,0,-17.40002703,1888,0,0,0,0,
1670359914359.00,0.052768023736965514,1.6351699676034925,-0.206813486,-170.41,-73.53,-77.03,-6492,14228,0,-17.40002703,1890,0,0,0,0,
1670359914369.00,0.5529656995806354,1.5552580104653644,-0.136539847,-98.83,-166.04,-48.39,-6275,14228,0,-16.8263241,1892,0,0,0,0,
1670359914376.00,0.6231822655347838,1.2053512952862864,-0.06627113,-103.53,-175.84,-46.72,-6275,14228,0,-16.8263241,1894,0,0,0,0,
1670359914385.00,0.14341647350824413,-0.544549572,0.2539918242471986,-134.16,-186.05,-41.9,-6676,14228,0,-17.88648482,1896,0,0,0,1,
1670359914392.00,0.003666911,-1.07444428,0.3942481708604078,-182.17,-178.18,7.53,-6676,14228,0,-17.88648482,1898,0,0,0,1,
1670359914402.00,0.12393206568493267,-1.094332461,0.6444969799464031,-236.52,-135.37,50.72,-5773,14228,0,-15.49914037,1900,0,0,0,1,
1670359914409.00,-0.055789618,-0.894213431,0.6747371581847288,-259.11,-102.53,71.01,-5773,14228,0,-15.49914037,1902,0,0,0,1,
1670359914419.00,-0.115499708,-0.814086111,0.36496739371624526,-265.34,-125.19,86.79,-4750,14228,0,-12.79454085,1904,0,0,0,1,
1670359914426.00,-0.245199759,-0.093949069,0.035186162283039474,-285.08,-144.13,76.38,-4750,14228,0,-12.79454085,1906,0,0,1,1,
1670359914435.00,-0.504891269,0.6561993573685067,-0.324608194,-286.72,-165.03,72.16,-5169,14228,0,-13.90228982,1908,0,0,1,1,
